emg_0,emg_1,emg_2,emg_3,emg_4,acc_x,acc_y,acc_z,gyro_x,gyro_y,gyro_z,dt
279,0.12548828125,-0.0196533203125,-1.1856689453125,1.4961832061068703,-2.366412213740458,0.7557251908396947,0.9706614017486572
280,0.135009765625,-0.0206298828125,-1.1912841796875,0.8778625954198473,-3.0229007633587788,0.5648854961832062,0.0025801658630371094
280,0.130126953125,-0.0169677734375,-1.1856689453125,0.648854961832061,-3.366412213740458,0.5190839694656488,0.0024726390838623047
280,0.127685546875,-0.0220947265625,-1.1839599609375,0.816793893129771,-2.969465648854962,0.4351145038167939,0.002555370330810547
280,0.120361328125,-0.0228271484375,-1.1966552734375,0.8396946564885496,-2.854961832061069,0.48091603053435117,0.002525806427001953
281,0.129638671875,-0.0230712890625,-1.1883544921875,0.6870229007633588,-3.015267175572519,0.5877862595419847,0.0029506683349609375
281,0.126953125,-0.0198974609375,-1.1968994140625,0.6946564885496184,-3.2519083969465647,0.48854961832061067,0.0026900768280029297
282,0.12646484375,-0.0228271484375,-1.1929931640625,0.648854961832061,-3.0916030534351147,0.44274809160305345,0.0025832653045654297
282,0.134521484375,-0.0228271484375,-1.1900634765625,0.5801526717557252,-2.984732824427481,0.2900763358778626,0.0025174617767333984
282,0.128173828125,-0.0189208984375,-1.1954345703125,0.6946564885496184,-2.984732824427481,0.48854961832061067,0.0025315284729003906
282,0.12353515625,-0.0247802734375,-1.1959228515625,0.8854961832061069,-2.954198473282443,0.3511450381679389,0.0025224685668945312
283,0.12548828125,-0.0203857421875,-1.2025146484375,0.6793893129770993,-3.114503816793893,0.33587786259541985,0.002519845962524414
284,0.12744140625,-0.0211181640625,-1.1917724609375,0.7251908396946565,-2.83206106870229,0.42748091603053434,0.0025031566619873047
285,0.131591796875,-0.0198974609375,-1.1959228515625,0.42748091603053434,-3.099236641221374,0.3282442748091603,0.002496480941772461
286,0.130615234375,-0.0252685546875,-1.1976318359375,0.4961832061068702,-2.9770992366412212,0.3969465648854962,0.002497434616088867
286,0.13134765625,-0.0225830078125,-1.1903076171875,0.5267175572519084,-3.1297709923664123,0.4351145038167939,0.0025436878204345703
287,0.125,-0.0181884765625,-1.1912841796875,0.42748091603053434,-3.198473282442748,0.2824427480916031,0.0026242733001708984
288,0.128173828125,-0.0198974609375,-1.2012939453125,0.46564885496183206,-3.0763358778625953,0.15267175572519084,0.002448558807373047
288,0.13232421875,-0.0206298828125,-1.1927490234375,0.40458015267175573,-3.2213740458015265,0.2748091603053435,0.002391338348388672
288,0.131103515625,-0.0255126953125,-1.1905517578125,0.4732824427480916,-3.183206106870229,0.29770992366412213,0.002367258071899414
290,0.1279296875,-0.0240478515625,-1.1988525390625,0.2900763358778626,-3.282442748091603,0.22137404580152673,0.002570629119873047
290,0.12841796875,-0.0191650390625,-1.1839599609375,0.4198473282442748,-3.145038167938931,0.24427480916030533,0.002458810806274414
292,0.12890625,-0.0240478515625,-1.1927490234375,0.4961832061068702,-3.2442748091603053,0.29770992366412213,0.002675294876098633
293,0.1240234375,-0.0242919921875,-1.1907958984375,0.2366412213740458,-2.969465648854962,0.25190839694656486,0.002446413040161133
293,0.131591796875,-0.0279541015625,-1.1905517578125,0.35877862595419846,-3.122137404580153,0.32061068702290074,0.0024526119232177734
295,0.123779296875,-0.0250244140625,-1.1937255859375,0.26717557251908397,-3.2213740458015265,0.3816793893129771,0.0023581981658935547
295,0.125732421875,-0.0220947265625,-1.1912841796875,0.35877862595419846,-3.183206106870229,0.3511450381679389,0.0023412704467773438
295,0.130859375,-0.0238037109375,-1.1912841796875,0.2900763358778626,-3.2519083969465647,0.0916030534351145,0.0023550987243652344
296,0.133056640625,-0.0216064453125,-1.1868896484375,0.3511450381679389,-3.1374045801526718,0.2595419847328244,0.002872943878173828
298,0.136474609375,-0.0230712890625,-1.1949462890625,0.3053435114503817,-3.282442748091603,0.2900763358778626,0.002417325973510742
299,0.125732421875,-0.0235595703125,-1.1859130859375,0.46564885496183206,-2.984732824427481,0.2366412213740458,0.0024650096893310547
299,0.133544921875,-0.0235595703125,-1.1898193359375,0.42748091603053434,-3.4198473282442747,0.2900763358778626,0.0023376941680908203
301,0.14013671875,-0.0274658203125,-1.1912841796875,0.48091603053435117,-3.2061068702290076,0.2595419847328244,0.002322673797607422
301,0.13623046875,-0.0223388671875,-1.1868896484375,0.2824427480916031,-3.1068702290076335,0.16793893129770993,0.0023288726806640625
303,0.1357421875,-0.0291748046875,-1.1876220703125,0.4351145038167939,-3.2748091603053435,0.2366412213740458,0.002408742904663086
303,0.132080078125,-0.0238037109375,-1.1995849609375,0.45038167938931295,-3.1526717557251906,0.20610687022900764,0.002635478973388672
304,0.138427734375,-0.0247802734375,-1.1990966796875,0.45038167938931295,-3.2900763358778624,0.15267175572519084,0.002422332763671875
305,0.13623046875,-0.0242919921875,-1.1927490234375,0.31297709923664124,-3.053435114503817,0.03816793893129771,0.0023632049560546875
306,0.130615234375,-0.0255126953125,-1.1993408203125,0.37404580152671757,-3.3206106870229006,0.0916030534351145,0.002322673797607422
308,0.135986328125,-0.0260009765625,-1.1903076171875,0.4580152671755725,-3.267175572519084,0.22900763358778625,0.002672910690307617
309,0.126220703125,-0.0211181640625,-1.2008056640625,0.40458015267175573,-3.3282442748091605,0.3435114503816794,0.002378702163696289
309,0.132080078125,-0.0189208984375,-1.2008056640625,0.20610687022900764,-3.2977099236641223,0.4122137404580153,0.002317190170288086
310,0.125,-0.0306396484375,-1.1883544921875,0.5114503816793893,-2.9389312977099236,0.48854961832061067,0.002321004867553711
310,0.1337890625,-0.0272216796875,-1.1905517578125,0.5267175572519084,-3.427480916030534,0.22900763358778625,0.0023174285888671875
311,0.132080078125,-0.0281982421875,-1.1915283203125,0.3893129770992366,-2.984732824427481,0.29770992366412213,0.002313375473022461
312,0.12890625,-0.0233154296875,-1.1873779296875,0.46564885496183206,-3.1908396946564888,0.3053435114503817,0.0023355484008789062
313,0.130859375,-0.0189208984375,-1.1885986328125,0.4732824427480916,-3.015267175572519,0.17557251908396945,0.002343893051147461
315,0.12548828125,-0.0218505859375,-1.1988525390625,0.3282442748091603,-3.198473282442748,0.33587786259541985,0.0023202896118164062
315,0.128173828125,-0.0189208984375,-1.1971435546875,0.5877862595419847,-3.2900763358778624,0.183206106870229,0.002336740493774414
316,0.135498046875,-0.0240478515625,-1.1851806640625,0.3435114503816794,-3.114503816793893,0.183206106870229,0.0023195743560791016
316,0.127197265625,-0.0235595703125,-1.1910400390625,0.5114503816793893,-3.282442748091603,0.22900763358778625,0.0023186206817626953
317,0.1337890625,-0.0208740234375,-1.1917724609375,0.6564885496183206,-3.145038167938931,0.2824427480916031,0.002317667007446289
318,0.127197265625,-0.0203857421875,-1.1905517578125,0.48854961832061067,-2.9770992366412212,0.19083969465648856,0.0023179054260253906
319,0.13037109375,-0.0289306640625,-1.1964111328125,0.4351145038167939,-3.1297709923664123,0.10687022900763359,0.0023186206817626953
320,0.128662109375,-0.0255126953125,-1.1976318359375,0.48091603053435117,-3.2213740458015265,0.1450381679389313,0.0023183822631835938
321,0.123046875,-0.0247802734375,-1.1922607421875,0.44274809160305345,-3.183206106870229,0.42748091603053434,0.002318859100341797
322,0.127685546875,-0.0196533203125,-1.1971435546875,0.40458015267175573,-3.122137404580153,0.09923664122137404,0.0023169517517089844
323,0.12841796875,-0.0233154296875,-1.1815185546875,0.29770992366412213,-3.1526717557251906,0.2900763358778626,0.0023174285888671875
324,0.12646484375,-0.0203857421875,-1.1903076171875,0.48854961832061067,-3.0076335877862594,0.19083969465648856,0.0023186206817626953
324,0.131103515625,-0.0220947265625,-1.1893310546875,0.6412213740458015,-3.3435114503816794,0.22900763358778625,0.0023331642150878906
325,0.12548828125,-0.0230712890625,-1.1878662109375,0.3053435114503817,-2.969465648854962,0.3053435114503817,0.002319812774658203
325,0.1318359375,-0.0245361328125,-1.1990966796875,0.3282442748091603,-3.0763358778625953,0.11450381679389313,0.002318143844604492
327,0.123291015625,-0.0203857421875,-1.1944580078125,0.3511450381679389,-3.1374045801526718,0.08396946564885496,0.0024971961975097656
328,0.130615234375,-0.0181884765625,-1.1900634765625,0.44274809160305345,-3.099236641221374,0.4198473282442748,0.0023322105407714844
328,0.13037109375,-0.0235595703125,-1.1861572265625,0.40458015267175573,-3.0763358778625953,0.22900763358778625,0.0023190975189208984
330,0.134765625,-0.0189208984375,-1.1890869140625,0.35877862595419846,-3.145038167938931,0.24427480916030533,0.002318143844604492
331,0.129150390625,-0.0247802734375,-1.1949462890625,0.3969465648854962,-3.3893129770992365,0.3969465648854962,0.0023190975189208984
331,0.1298828125,-0.0250244140625,-1.1934814453125,0.5190839694656488,-3.1603053435114505,0.1450381679389313,0.0023186206817626953
332,0.12890625,-0.0245361328125,-1.1973876953125,0.31297709923664124,-3.2519083969465647,0.3511450381679389,0.002317190170288086
332,0.129638671875,-0.0238037109375,-1.1893310546875,0.2900763358778626,-3.1068702290076335,0.2748091603053435,0.002315998077392578
333,0.13623046875,-0.0194091796875,-1.1910400390625,0.40458015267175573,-3.2290076335877864,0.0916030534351145,0.0023131370544433594
334,0.127197265625,-0.0177001953125,-1.1949462890625,0.46564885496183206,-2.854961832061069,0.2748091603053435,0.002321004867553711
335,0.129638671875,-0.0201416015625,-1.2017822265625,0.48854961832061067,-3.183206106870229,0.3282442748091603,0.002317190170288086
336,0.13134765625,-0.0238037109375,-1.1898193359375,0.2366412213740458,-3.213740458015267,0.19083969465648856,0.002316713333129883
336,0.13427734375,-0.0203857421875,-1.1942138671875,0.5572519083969466,-3.2442748091603053,0.31297709923664124,0.0023169517517089844
337,0.13330078125,-0.0294189453125,-1.1993408203125,0.3969465648854962,-3.053435114503817,0.3511450381679389,0.0023157596588134766
337,0.134521484375,-0.0264892578125,-1.1903076171875,0.32061068702290074,-3.3206106870229006,0.24427480916030533,0.0023164749145507812
337,0.1337890625,-0.0238037109375,-1.1934814453125,0.40458015267175573,-3.1526717557251906,0.2748091603053435,0.0023174285888671875
338,0.134765625,-0.0220947265625,-1.1998291015625,0.5114503816793893,-3.282442748091603,0.22137404580152673,0.002316713333129883
338,0.13427734375,-0.0242919921875,-1.1842041015625,0.3511450381679389,-3.1297709923664123,0.22900763358778625,0.002316713333129883
339,0.127685546875,-0.0252685546875,-1.1910400390625,0.3053435114503817,-3.114503816793893,0.17557251908396945,0.002609729766845703
340,0.134033203125,-0.0250244140625,-1.1900634765625,0.48854961832061067,-3.1755725190839694,0.13740458015267176,0.0023348331451416016
341,0.130615234375,-0.0289306640625,-1.1925048828125,0.2900763358778626,-3.2213740458015265,0.3282442748091603,0.0023193359375
342,0.131103515625,-0.0303955078125,-1.1907958984375,0.37404580152671757,-2.946564885496183,0.19083969465648856,0.0023195743560791016
343,0.12939453125,-0.0269775390625,-1.1888427734375,0.4198473282442748,-3.450381679389313,0.11450381679389313,0.0023195743560791016
343,0.134033203125,-0.0218505859375,-1.1888427734375,0.48091603053435117,-3.2061068702290076,0.2748091603053435,0.002317190170288086
343,0.1298828125,-0.0225830078125,-1.1956787109375,0.40458015267175573,-3.1908396946564888,0.21374045801526717,0.0023186206817626953
344,0.1298828125,-0.0240478515625,-1.1873779296875,0.1984732824427481,-3.16793893129771,0.20610687022900764,0.002317667007446289
344,0.1328125,-0.0264892578125,-1.1898193359375,0.3282442748091603,-3.2900763358778624,0.007633587786259542,0.0023174285888671875
346,0.13525390625,-0.0286865234375,-1.1961669921875,0.26717557251908397,-3.145038167938931,0.13740458015267176,0.0023179054260253906
346,0.12744140625,-0.0272216796875,-1.1932373046875,0.22900763358778625,-3.267175572519084,0.25190839694656486,0.002318143844604492
346,0.12841796875,-0.0291748046875,-1.1851806640625,0.4122137404580153,-3.2595419847328246,0.09923664122137404,0.0023179054260253906
348,0.12744140625,-0.0201416015625,-1.1956787109375,0.33587786259541985,-3.1526717557251906,0.3511450381679389,0.002316713333129883
347,0.13037109375,-0.0177001953125,-1.1893310546875,0.3282442748091603,-3.3053435114503817,0.2366412213740458,0.002317667007446289
348,0.130615234375,-0.0281982421875,-1.1964111328125,0.3893129770992366,-3.183206106870229,0.24427480916030533,0.0023169517517089844
348,0.13427734375,-0.0257568359375,-1.1939697265625,0.4732824427480916,-3.2519083969465647,0.04580152671755725,0.0023179054260253906
349,0.1337890625,-0.0191650390625,-1.1854248046875,0.4122137404580153,-2.9923664122137406,0.3816793893129771,0.002317667007446289
349,0.121826171875,-0.0235595703125,-1.1888427734375,0.35877862595419846,-3.236641221374046,0.2748091603053435,0.002317667007446289
350,0.12744140625,-0.0186767578125,-1.1866455078125,0.2366412213740458,-3.2442748091603053,-0.03816793893129771,0.0023186206817626953
351,0.126953125,-0.0252685546875,-1.1898193359375,0.32061068702290074,-3.351145038167939,0.3282442748091603,0.002317190170288086
351,0.1279296875,-0.0228271484375,-1.1788330078125,0.42748091603053434,-3.145038167938931,0.07633587786259542,0.0023322105407714844
351,0.132568359375,-0.0252685546875,-1.1927490234375,0.25190839694656486,-3.068702290076336,0.25190839694656486,0.0023183822631835938
351,0.1298828125,-0.0211181640625,-1.1990966796875,0.3816793893129771,-3.282442748091603,0.1297709923664122,0.0023174285888671875
352,0.125244140625,-0.0233154296875,-1.1915283203125,0.4198473282442748,-3.114503816793893,0.06870229007633588,0.0023186206817626953
351,0.12744140625,-0.0291748046875,-1.1898193359375,0.3435114503816794,-3.213740458015267,0.19083969465648856,0.002317190170288086
352,0.130859375,-0.0201416015625,-1.1920166015625,0.4732824427480916,-3.183206106870229,0.4122137404580153,0.0023179054260253906
353,0.126220703125,-0.0201416015625,-1.1917724609375,0.16030534351145037,-3.1374045801526718,0.06870229007633588,0.0023157596588134766
353,0.136962890625,-0.0262451171875,-1.1947021484375,0.5572519083969466,-3.1526717557251906,0.3511450381679389,0.0023183822631835938
354,0.138916015625,-0.0225830078125,-1.1900634765625,0.48854961832061067,-3.236641221374046,0.20610687022900764,0.0023179054260253906
355,0.132080078125,-0.0220947265625,-1.1824951171875,0.33587786259541985,-3.16793893129771,0.10687022900763359,0.0023174285888671875
353,0.133544921875,-0.0223388671875,-1.1920166015625,0.5038167938931297,-3.2748091603053435,0.29770992366412213,0.002318143844604492
355,0.130859375,-0.0245361328125,-1.1934814453125,0.44274809160305345,-3.1755725190839694,0.16793893129770993,0.002316713333129883
355,0.12646484375,-0.0220947265625,-1.1929931640625,0.32061068702290074,-2.9923664122137406,0.13740458015267176,0.0023179054260253906
355,0.13232421875,-0.0235595703125,-1.1876220703125,0.32061068702290074,-3.33587786259542,0.1450381679389313,0.002317190170288086
355,0.134033203125,-0.0242919921875,-1.1954345703125,0.3816793893129771,-3.1755725190839694,0.2748091603053435,0.0023162364959716797
356,0.1328125,-0.0255126953125,-1.1939697265625,0.5343511450381679,-3.2595419847328246,0.33587786259541985,0.0023183822631835938
356,0.13330078125,-0.0242919921875,-1.1895751953125,0.5572519083969466,-3.1526717557251906,0.2595419847328244,0.002315998077392578
357,0.131591796875,-0.0233154296875,-1.1971435546875,0.4198473282442748,-3.0916030534351147,0.366412213740458,0.0023183822631835938
358,0.139404296875,-0.0279541015625,-1.1932373046875,0.4732824427480916,-3.351145038167939,0.09923664122137404,0.002316713333129883
357,0.12890625,-0.0206298828125,-1.1895751953125,0.3816793893129771,-3.030534351145038,0.3053435114503817,0.002317190170288086
357,0.129638671875,-0.0242919921875,-1.1856689453125,0.5801526717557252,-3.0763358778625953,0.3282442748091603,0.0023162364959716797
357,0.1376953125,-0.0269775390625,-1.1903076171875,0.3816793893129771,-3.053435114503817,0.2595419847328244,0.002317667007446289
358,0.134033203125,-0.0296630859375,-1.1905517578125,0.5343511450381679,-3.1755725190839694,0.13740458015267176,0.0023174285888671875
358,0.136962890625,-0.0267333984375,-1.1885986328125,0.2900763358778626,-3.1755725190839694,0.1984732824427481,0.0023164749145507812
359,0.131591796875,-0.0230712890625,-1.1951904296875,0.37404580152671757,-3.2290076335877864,0.183206106870229,0.0024645328521728516
359,0.131591796875,-0.0277099609375,-1.1949462890625,0.3282442748091603,-3.0381679389312977,0.06870229007633588,0.0023241043090820312
359,0.1376953125,-0.0260009765625,-1.1903076171875,0.29770992366412213,-3.2290076335877864,0.16030534351145037,0.0023193359375
359,0.1298828125,-0.0208740234375,-1.1988525390625,0.46564885496183206,-3.0610687022900764,0.2366412213740458,0.0023179054260253906
359,0.135498046875,-0.0279541015625,-1.1927490234375,0.35877862595419846,-3.16793893129771,0.061068702290076333,0.002315521240234375
359,0.134765625,-0.0299072265625,-1.1839599609375,0.3511450381679389,-3.236641221374046,0.16793893129770993,0.0023174285888671875
359,0.130859375,-0.0269775390625,-1.1878662109375,0.3282442748091603,-3.0763358778625953,0.1984732824427481,0.0023164749145507812
359,0.132568359375,-0.0230712890625,-1.1859130859375,0.40458015267175573,-3.2442748091603053,0.183206106870229,0.002315998077392578
360,0.13232421875,-0.0252685546875,-1.1968994140625,0.3053435114503817,-3.099236641221374,0.15267175572519084,0.002316713333129883
360,0.136474609375,-0.0260009765625,-1.1927490234375,0.42748091603053434,-3.1603053435114505,0.12213740458015267,0.0023217201232910156
361,0.13134765625,-0.0267333984375,-1.1927490234375,0.42748091603053434,-3.1297709923664123,0.1984732824427481,0.0023169517517089844
360,0.130615234375,-0.0291748046875,-1.1878662109375,0.40458015267175573,-3.2519083969465647,0.1984732824427481,0.0023157596588134766
360,0.131591796875,-0.0250244140625,-1.1932373046875,0.3282442748091603,-3.3282442748091605,0.12213740458015267,0.002316713333129883
361,0.1376953125,-0.0269775390625,-1.1917724609375,0.3969465648854962,-3.145038167938931,0.15267175572519084,0.0023164749145507812
360,0.126953125,-0.0296630859375,-1.1959228515625,0.21374045801526717,-3.2977099236641223,0.40458015267175573,0.0023162364959716797
360,0.13330078125,-0.0274658203125,-1.1932373046875,0.5190839694656488,-3.3053435114503817,-0.0916030534351145,0.002315998077392578
361,0.132080078125,-0.0323486328125,-1.1944580078125,0.21374045801526717,-3.3206106870229006,0.03816793893129771,0.002316713333129883
361,0.135986328125,-0.0262451171875,-1.1883544921875,0.25190839694656486,-3.3740458015267176,0.16030534351145037,0.0023179054260253906
361,0.130615234375,-0.0255126953125,-1.1922607421875,0.32061068702290074,-3.267175572519084,0.1450381679389313,0.0023162364959716797
361,0.135009765625,-0.0233154296875,-1.1937255859375,0.2748091603053435,-3.282442748091603,0.0916030534351145,0.0023164749145507812
361,0.135498046875,-0.0203857421875,-1.2000732421875,0.2595419847328244,-3.282442748091603,0.16793893129770993,0.002317190170288086
360,0.132568359375,-0.0303955078125,-1.1864013671875,0.10687022900763359,-3.1374045801526718,-0.05343511450381679,0.002323150634765625
360,0.12744140625,-0.0257568359375,-1.1922607421875,0.32061068702290074,-3.2977099236641223,0.03816793893129771,0.0023183822631835938
361,0.130126953125,-0.0269775390625,-1.1851806640625,0.21374045801526717,-3.3282442748091605,0.17557251908396945,0.0023162364959716797
361,0.13525390625,-0.0245361328125,-1.1905517578125,0.15267175572519084,-3.366412213740458,0.07633587786259542,0.0023169517517089844
362,0.13427734375,-0.0330810546875,-1.1898193359375,0.22900763358778625,-3.2213740458015265,0.08396946564885496,0.0023164749145507812
361,0.13427734375,-0.0343017578125,-1.1966552734375,0.19083969465648856,-3.3893129770992365,0.09923664122137404,0.002316713333129883
363,0.1318359375,-0.0245361328125,-1.1956787109375,0.19083969465648856,-3.3206106870229006,-0.015267175572519083,0.0023157596588134766
362,0.128173828125,-0.0211181640625,-1.1890869140625,0.17557251908396945,-3.3893129770992365,-0.007633587786259542,0.002321004867553711
362,0.132080078125,-0.0242919921875,-1.1871337890625,0.32061068702290074,-3.4122137404580153,0.12213740458015267,0.0023186206817626953
362,0.133544921875,-0.0277099609375,-1.1922607421875,0.1297709923664122,-3.3206106870229006,0.030534351145038167,0.002316713333129883
362,0.132568359375,-0.0296630859375,-1.1890869140625,0.16793893129770993,-3.0610687022900764,0.09923664122137404,0.0023267269134521484
362,0.12646484375,-0.0272216796875,-1.1964111328125,0.15267175572519084,-3.3893129770992365,0.10687022900763359,0.0023183822631835938
361,0.129638671875,-0.0242919921875,-1.1973876953125,0.3053435114503817,-3.2519083969465647,0.2366412213740458,0.002317190170288086
362,0.123046875,-0.0213623046875,-1.1929931640625,0.061068702290076333,-3.404580152671756,0.09923664122137404,0.0023353099822998047
362,0.121337890625,-0.0267333984375,-1.1954345703125,0.24427480916030533,-3.3435114503816794,-0.13740458015267176,0.002317667007446289
363,0.13671875,-0.0206298828125,-1.1922607421875,0.07633587786259542,-3.1908396946564888,0.015267175572519083,0.002318143844604492
361,0.130126953125,-0.0242919921875,-1.1873779296875,0.1450381679389313,-3.183206106870229,0.1450381679389313,0.0023152828216552734
361,0.12841796875,-0.0208740234375,-1.1929931640625,0.24427480916030533,-3.5572519083969465,0.16030534351145037,0.0023164749145507812
361,0.132568359375,-0.0228271484375,-1.1915283203125,0.07633587786259542,-3.3740458015267176,0.17557251908396945,0.0023169517517089844
361,0.13037109375,-0.0238037109375,-1.1939697265625,0.24427480916030533,-3.267175572519084,0.0,0.002316713333129883
361,0.126708984375,-0.0257568359375,-1.1995849609375,0.12213740458015267,-3.3435114503816794,0.22137404580152673,0.0023174285888671875
362,0.127197265625,-0.0245361328125,-1.1932373046875,0.06870229007633588,-3.267175572519084,0.08396946564885496,0.002317190170288086
362,0.126220703125,-0.0208740234375,-1.1929931640625,0.11450381679389313,-3.1603053435114505,-0.03816793893129771,0.0023174285888671875
362,0.13330078125,-0.0230712890625,-1.1929931640625,0.022900763358778626,-3.33587786259542,0.1984732824427481,0.0023207664489746094
361,0.134521484375,-0.0242919921875,-1.1959228515625,0.16793893129770993,-3.2900763358778624,0.015267175572519083,0.0023174285888671875
362,0.125244140625,-0.0291748046875,-1.1973876953125,0.04580152671755725,-3.351145038167939,0.061068702290076333,0.0023174285888671875
361,0.126953125,-0.0228271484375,-1.2000732421875,0.04580152671755725,-3.5114503816793894,0.20610687022900764,0.0023186206817626953
361,0.1318359375,-0.0250244140625,-1.1878662109375,0.10687022900763359,-3.213740458015267,0.29770992366412213,0.0023229122161865234
361,0.133544921875,-0.0272216796875,-1.1937255859375,0.2595419847328244,-3.4427480916030535,0.16793893129770993,0.002318859100341797
361,0.133544921875,-0.0240478515625,-1.1881103515625,0.1984732824427481,-3.3893129770992365,0.08396946564885496,0.0023212432861328125
361,0.12890625,-0.0220947265625,-1.1925048828125,0.1297709923664122,-3.2213740458015265,0.1450381679389313,0.002316713333129883
361,0.13427734375,-0.0257568359375,-1.1895751953125,0.16793893129770993,-3.427480916030534,0.22900763358778625,0.0023169517517089844
362,0.131591796875,-0.0255126953125,-1.2020263671875,0.16793893129770993,-3.068702290076336,0.24427480916030533,0.0023190975189208984
361,0.138671875,-0.0250244140625,-1.1942138671875,0.20610687022900764,-3.2595419847328246,0.04580152671755725,0.002316713333129883
361,0.13330078125,-0.0247802734375,-1.1929931640625,0.25190839694656486,-3.3282442748091605,0.11450381679389313,0.002317667007446289
361,0.130126953125,-0.0330810546875,-1.1981201171875,0.33587786259541985,-3.2213740458015265,-0.03816793893129771,0.0023169517517089844
360,0.131103515625,-0.0206298828125,-1.1864013671875,0.15267175572519084,-3.2442748091603053,0.12213740458015267,0.0023179054260253906
360,0.134765625,-0.0299072265625,-1.1915283203125,0.2748091603053435,-3.1603053435114505,-0.007633587786259542,0.002318143844604492
359,0.131103515625,-0.0245361328125,-1.1878662109375,0.13740458015267176,-3.3435114503816794,-0.07633587786259542,0.0023169517517089844
360,0.134765625,-0.0225830078125,-1.1922607421875,0.19083969465648856,-3.366412213740458,0.20610687022900764,0.0023183822631835938
361,0.1318359375,-0.0289306640625,-1.1920166015625,0.1450381679389313,-3.312977099236641,0.022900763358778626,0.002334117889404297
360,0.1337890625,-0.0301513671875,-1.1903076171875,-0.04580152671755725,-3.366412213740458,0.22900763358778625,0.002443552017211914
360,0.14111328125,-0.0303955078125,-1.1817626953125,0.13740458015267176,-3.4427480916030535,0.09923664122137404,0.0023279190063476562
359,0.13671875,-0.0299072265625,-1.2005615234375,0.05343511450381679,-3.198473282442748,0.1984732824427481,0.0023193359375
359,0.134033203125,-0.0260009765625,-1.1939697265625,0.13740458015267176,-3.236641221374046,0.16030534351145037,0.002317190170288086
359,0.135498046875,-0.0281982421875,-1.1934814453125,0.0916030534351145,-3.4122137404580153,0.07633587786259542,0.002660036087036133
359,0.129150390625,-0.0223388671875,-1.1824951171875,0.11450381679389313,-3.2748091603053435,0.16030534351145037,0.0023343563079833984
359,0.13427734375,-0.0325927734375,-1.1910400390625,0.12213740458015267,-3.312977099236641,0.08396946564885496,0.0023195743560791016
359,0.13134765625,-0.0264892578125,-1.1883544921875,0.13740458015267176,-3.4427480916030535,0.24427480916030533,0.0023186206817626953
359,0.131103515625,-0.0281982421875,-1.1854248046875,0.19083969465648856,-3.1603053435114505,0.007633587786259542,0.0023186206817626953
359,0.129638671875,-0.0291748046875,-1.1885986328125,0.20610687022900764,-3.5114503816793894,0.15267175572519084,0.002318143844604492
359,0.129638671875,-0.0267333984375,-1.1907958984375,0.13740458015267176,-3.312977099236641,0.04580152671755725,0.0023179054260253906
358,0.134521484375,-0.0272216796875,-1.1912841796875,0.10687022900763359,-3.3206106870229006,0.05343511450381679,0.002317190170288086
357,0.1318359375,-0.0264892578125,-1.1939697265625,0.09923664122137404,-3.4580152671755724,0.21374045801526717,0.002317667007446289
357,0.13232421875,-0.0245361328125,-1.1922607421875,0.25190839694656486,-3.4732824427480917,0.007633587786259542,0.0023174285888671875
357,0.130615234375,-0.0230712890625,-1.1839599609375,0.04580152671755725,-3.2213740458015265,0.17557251908396945,0.002318143844604492
357,0.13427734375,-0.0228271484375,-1.1890869140625,0.20610687022900764,-3.5343511450381677,0.16793893129770993,0.0023179054260253906
357,0.126708984375,-0.0289306640625,-1.1925048828125,0.21374045801526717,-3.4122137404580153,0.12213740458015267,0.0023169517517089844
357,0.1337890625,-0.0206298828125,-1.2030029296875,0.22900763358778625,-3.4427480916030535,0.13740458015267176,0.0023179054260253906
357,0.13232421875,-0.0308837890625,-1.1910400390625,0.20610687022900764,-3.5343511450381677,0.06870229007633588,0.0023174285888671875
356,0.1357421875,-0.0281982421875,-1.1898193359375,0.22900763358778625,-3.3435114503816794,-0.04580152671755725,0.002317667007446289
356,0.12890625,-0.0296630859375,-1.1868896484375,0.183206106870229,-3.3969465648854964,0.1450381679389313,0.0023174285888671875
356,0.1337890625,-0.0216064453125,-1.1925048828125,0.3282442748091603,-3.2290076335877864,0.030534351145038167,0.0023183822631835938
355,0.121337890625,-0.0242919921875,-1.1849365234375,0.07633587786259542,-3.404580152671756,0.25190839694656486,0.0023186206817626953
355,0.1279296875,-0.0252685546875,-1.1978759765625,0.1984732824427481,-3.450381679389313,-0.06870229007633588,0.002317667007446289
356,0.133056640625,-0.0240478515625,-1.1893310546875,0.21374045801526717,-3.3282442748091605,-0.03816793893129771,0.002317190170288086
356,0.134033203125,-0.0279541015625,-1.1905517578125,0.04580152671755725,-3.427480916030534,0.0916030534351145,0.002318143844604492
355,0.131103515625,-0.0240478515625,-1.1881103515625,0.1450381679389313,-3.236641221374046,0.03816793893129771,0.0024170875549316406
355,0.130615234375,-0.0264892578125,-1.1890869140625,0.0916030534351145,-3.480916030534351,0.061068702290076333,0.002324342727661133
355,0.125244140625,-0.0255126953125,-1.1832275390625,0.061068702290076333,-3.4656488549618323,0.022900763358778626,0.002313375473022461
354,0.129638671875,-0.0250244140625,-1.1932373046875,0.16030534351145037,-3.236641221374046,0.183206106870229,0.002315998077392578
354,0.132080078125,-0.0184326171875,-1.1878662109375,0.1297709923664122,-3.450381679389313,0.1297709923664122,0.0023145675659179688
353,0.12841796875,-0.0223388671875,-1.1966552734375,0.06870229007633588,-3.2519083969465647,0.0,0.0023152828216552734
354,0.12890625,-0.0206298828125,-1.1929931640625,0.1450381679389313,-3.5267175572519083,0.0916030534351145,0.0023124217987060547
354,0.135986328125,-0.0296630859375,-1.1995849609375,0.1297709923664122,-3.2519083969465647,0.1297709923664122,0.0023136138916015625
353,0.1337890625,-0.0257568359375,-1.1934814453125,0.007633587786259542,-3.4580152671755724,-0.06870229007633588,0.0023157596588134766
352,0.1259765625,-0.0242919921875,-1.1932373046875,0.12213740458015267,-3.3740458015267176,0.21374045801526717,0.002318859100341797
353,0.134521484375,-0.0296630859375,-1.1907958984375,0.0916030534351145,-3.2748091603053435,0.25190839694656486,0.0023179054260253906
352,0.1357421875,-0.0203857421875,-1.1900634765625,0.04580152671755725,-3.3969465648854964,0.11450381679389313,0.002317667007446289
352,0.12744140625,-0.0277099609375,-1.1829833984375,0.06870229007633588,-3.2213740458015265,0.19083969465648856,0.0023174285888671875
352,0.132568359375,-0.0274658203125,-1.1981201171875,0.08396946564885496,-3.3893129770992365,0.0916030534351145,0.0023174285888671875
351,0.1318359375,-0.0257568359375,-1.1925048828125,0.2366412213740458,-3.351145038167939,0.09923664122137404,0.002316713333129883
353,0.130615234375,-0.0208740234375,-1.2012939453125,0.08396946564885496,-3.122137404580153,0.12213740458015267,0.0023174285888671875
352,0.13525390625,-0.0277099609375,-1.1939697265625,0.061068702290076333,-3.33587786259542,0.20610687022900764,0.002315998077392578
352,0.13037109375,-0.0277099609375,-1.2022705078125,0.0,-3.427480916030534,0.030534351145038167,0.002317190170288086
351,0.1298828125,-0.0255126953125,-1.1890869140625,0.1297709923664122,-3.3740458015267176,0.04580152671755725,0.002318143844604492
350,0.1298828125,-0.0250244140625,-1.1917724609375,0.0,-3.427480916030534,0.24427480916030533,0.0023276805877685547
350,0.128662109375,-0.0238037109375,-1.1912841796875,0.1297709923664122,-3.3206106870229006,0.015267175572519083,0.0023183822631835938
351,0.1279296875,-0.0284423828125,-1.1968994140625,0.22900763358778625,-3.3053435114503817,0.04580152671755725,0.002316713333129883
350,0.13037109375,-0.0250244140625,-1.1956787109375,-0.030534351145038167,-3.2977099236641223,0.1297709923664122,0.0023245811462402344
349,0.133544921875,-0.0308837890625,-1.1925048828125,0.015267175572519083,-3.4427480916030535,0.1984732824427481,0.0023190975189208984
349,0.1259765625,-0.0284423828125,-1.1895751953125,0.183206106870229,-3.2519083969465647,0.030534351145038167,0.002318143844604492
349,0.132568359375,-0.0343017578125,-1.1968994140625,0.03816793893129771,-3.1526717557251906,0.20610687022900764,0.0023365020751953125
349,0.135009765625,-0.0245361328125,-1.1800537109375,0.1297709923664122,-3.5114503816793894,0.0,0.0023183822631835938
349,0.1279296875,-0.0211181640625,-1.1917724609375,0.04580152671755725,-3.4732824427480917,0.22900763358778625,0.0023174285888671875
349,0.129638671875,-0.0277099609375,-1.1922607421875,0.19083969465648856,-3.3282442748091605,0.022900763358778626,0.0023169517517089844
347,0.1279296875,-0.0213623046875,-1.1900634765625,0.15267175572519084,-3.2442748091603053,-0.007633587786259542,0.002317667007446289
347,0.1279296875,-0.0235595703125,-1.1944580078125,0.2366412213740458,-3.3740458015267176,0.2748091603053435,0.002317667007446289
348,0.1318359375,-0.0211181640625,-1.1932373046875,0.10687022900763359,-3.33587786259542,-0.022900763358778626,0.0023162364959716797
347,0.130859375,-0.0345458984375,-1.1861572265625,0.19083969465648856,-3.2900763358778624,0.0916030534351145,0.0023183822631835938
348,0.1337890625,-0.0255126953125,-1.1944580078125,0.07633587786259542,-3.1297709923664123,0.0916030534351145,0.002315998077392578
347,0.132568359375,-0.0306396484375,-1.1832275390625,0.11450381679389313,-3.2213740458015265,0.0916030534351145,0.002316713333129883
347,0.13134765625,-0.0228271484375,-1.2000732421875,0.09923664122137404,-3.3053435114503817,0.17557251908396945,0.002317667007446289
346,0.134521484375,-0.0277099609375,-1.1907958984375,-0.030534351145038167,-3.2442748091603053,0.09923664122137404,0.0024635791778564453
345,0.131103515625,-0.0299072265625,-1.1942138671875,0.17557251908396945,-3.4732824427480917,0.33587786259541985,0.002373933792114258
346,0.1259765625,-0.0299072265625,-1.1983642578125,0.17557251908396945,-3.3587786259541983,0.08396946564885496,0.0023174285888671875
345,0.132568359375,-0.0257568359375,-1.1973876953125,0.1450381679389313,-3.381679389312977,0.08396946564885496,0.0031194686889648438
345,0.135986328125,-0.0257568359375,-1.1868896484375,0.1450381679389313,-3.3282442748091605,0.15267175572519084,0.003321409225463867
345,0.13427734375,-0.0303955078125,-1.1861572265625,0.22900763358778625,-3.3969465648854964,0.022900763358778626,0.0024776458740234375
345,0.135009765625,-0.0260009765625,-1.1968994140625,0.015267175572519083,-3.4122137404580153,0.2748091603053435,0.0023386478424072266
344,0.135986328125,-0.0303955078125,-1.1920166015625,0.1450381679389313,-3.3969465648854964,-0.061068702290076333,0.0023479461669921875
343,0.13330078125,-0.0308837890625,-1.1912841796875,0.022900763358778626,-3.5267175572519083,0.25190839694656486,0.002322673797607422
344,0.134765625,-0.0269775390625,-1.1890869140625,-0.007633587786259542,-3.3893129770992365,-0.030534351145038167,0.0023233890533447266
343,0.1318359375,-0.0281982421875,-1.1986083984375,0.022900763358778626,-3.2290076335877864,0.11450381679389313,0.002321004867553711
342,0.137939453125,-0.0233154296875,-1.1829833984375,-0.007633587786259542,-3.618320610687023,0.06870229007633588,0.002333402633666992
343,0.13134765625,-0.0284423828125,-1.1898193359375,0.05343511450381679,-3.282442748091603,0.08396946564885496,0.002325296401977539
343,0.136474609375,-0.0194091796875,-1.1964111328125,0.007633587786259542,-3.4122137404580153,0.007633587786259542,0.002320528030395508
342,0.13623046875,-0.0218505859375,-1.2032470703125,0.16030534351145037,-3.351145038167939,0.0,0.0023212432861328125
342,0.132080078125,-0.0213623046875,-1.1907958984375,0.07633587786259542,-3.33587786259542,0.06870229007633588,0.0023183822631835938
341,0.137939453125,-0.0255126953125,-1.1873779296875,0.1450381679389313,-3.4427480916030535,0.030534351145038167,0.0023200511932373047
341,0.1337890625,-0.0257568359375,-1.1937255859375,0.12213740458015267,-3.450381679389313,-0.061068702290076333,0.002319812774658203
340,0.13427734375,-0.0306396484375,-1.1978759765625,0.0,-3.6030534351145036,-0.04580152671755725,0.0023193359375
340,0.131591796875,-0.0233154296875,-1.1890869140625,0.0,-3.3435114503816794,0.061068702290076333,0.0023162364959716797
340,0.12646484375,-0.0235595703125,-1.1866455078125,0.061068702290076333,-3.33587786259542,0.183206106870229,0.002316713333129883
340,0.13330078125,-0.0235595703125,-1.1947021484375,0.1450381679389313,-3.427480916030534,0.1450381679389313,0.002317667007446289
340,0.134033203125,-0.0235595703125,-1.1929931640625,0.0,-3.282442748091603,0.11450381679389313,0.002316713333129883
340,0.133544921875,-0.0201416015625,-1.1876220703125,0.3053435114503817,-3.4427480916030535,0.07633587786259542,0.00235748291015625
339,0.131591796875,-0.0311279296875,-1.1895751953125,0.1450381679389313,-3.3206106870229006,0.15267175572519084,0.0023293495178222656
339,0.130615234375,-0.0208740234375,-1.1990966796875,0.12213740458015267,-3.351145038167939,0.15267175572519084,0.0023233890533447266
338,0.128662109375,-0.0225830078125,-1.1937255859375,0.13740458015267176,-3.4198473282442747,0.030534351145038167,0.002316713333129883
338,0.13037109375,-0.0281982421875,-1.1898193359375,0.25190839694656486,-3.2977099236641223,0.12213740458015267,0.0023183822631835938
338,0.131591796875,-0.0230712890625,-1.1878662109375,0.11450381679389313,-3.3740458015267176,0.022900763358778626,0.0023376941680908203
338,0.1279296875,-0.0216064453125,-1.1854248046875,0.2366412213740458,-3.5114503816793894,0.12213740458015267,0.002319812774658203
337,0.131103515625,-0.0233154296875,-1.1922607421875,0.007633587786259542,-3.4885496183206106,0.07633587786259542,0.002318859100341797
337,0.1298828125,-0.0230712890625,-1.1927490234375,0.05343511450381679,-3.4427480916030535,0.10687022900763359,0.002318143844604492
337,0.13037109375,-0.0247802734375,-1.1937255859375,0.1450381679389313,-3.404580152671756,0.22900763358778625,0.0023183822631835938
336,0.1318359375,-0.0250244140625,-1.1934814453125,0.1297709923664122,-3.236641221374046,0.2366412213740458,0.0023195743560791016
336,0.127197265625,-0.0194091796875,-1.1883544921875,0.04580152671755725,-3.3587786259541983,0.0,0.0023200511932373047
336,0.1279296875,-0.0306396484375,-1.1947021484375,0.16793893129770993,-3.3969465648854964,0.183206106870229,0.002318859100341797
335,0.131103515625,-0.0247802734375,-1.1925048828125,0.030534351145038167,-3.145038167938931,0.007633587786259542,0.0023186206817626953
335,0.122314453125,-0.0250244140625,-1.1929931640625,0.08396946564885496,-3.1526717557251906,0.007633587786259542,0.002318859100341797
335,0.131103515625,-0.0257568359375,-1.1929931640625,0.0916030534351145,-3.1603053435114505,0.2824427480916031,0.0023193359375
335,0.13037109375,-0.0284423828125,-1.1932373046875,0.015267175572519083,-3.450381679389313,-0.05343511450381679,0.002317190170288086
335,0.13134765625,-0.0289306640625,-1.1971435546875,0.1297709923664122,-3.0381679389312977,0.2900763358778626,0.002318859100341797
334,0.133544921875,-0.0299072265625,-1.1885986328125,0.061068702290076333,-3.5801526717557253,-0.11450381679389313,0.0023186206817626953
334,0.12939453125,-0.0272216796875,-1.1885986328125,-0.061068702290076333,-3.2900763358778624,0.2748091603053435,0.0023190975189208984
334,0.13525390625,-0.0264892578125,-1.1864013671875,0.17557251908396945,-3.2442748091603053,0.03816793893129771,0.002318859100341797
333,0.129638671875,-0.0264892578125,-1.1954345703125,0.12213740458015267,-3.366412213740458,0.0,0.0023179054260253906
333,0.13330078125,-0.0279541015625,-1.1983642578125,-0.061068702290076333,-3.480916030534351,0.20610687022900764,0.0023169517517089844
333,0.132568359375,-0.0306396484375,-1.1912841796875,0.1297709923664122,-3.122137404580153,0.022900763358778626,0.002317190170288086
334,0.130615234375,-0.0240478515625,-1.1895751953125,0.13740458015267176,-3.427480916030534,-0.030534351145038167,0.002318143844604492
333,0.132080078125,-0.0272216796875,-1.1988525390625,0.15267175572519084,-3.4427480916030535,0.06870229007633588,0.0023179054260253906
333,0.13525390625,-0.0240478515625,-1.1917724609375,0.05343511450381679,-3.0381679389312977,0.11450381679389313,0.0023179054260253906
332,0.1259765625,-0.0330810546875,-1.1868896484375,0.08396946564885496,-3.366412213740458,0.183206106870229,0.0023393630981445312
332,0.130615234375,-0.0306396484375,-1.1873779296875,0.13740458015267176,-3.2442748091603053,0.022900763358778626,0.0023810863494873047
331,0.1337890625,-0.0301513671875,-1.1834716796875,0.12213740458015267,-3.3587786259541983,0.0,0.0023300647735595703
331,0.1337890625,-0.0235595703125,-1.1881103515625,0.015267175572519083,-3.33587786259542,0.3511450381679389,0.0023157596588134766
330,0.12841796875,-0.0308837890625,-1.1954345703125,0.04580152671755725,-3.404580152671756,0.007633587786259542,0.0023186206817626953
331,0.135498046875,-0.0250244140625,-1.1844482421875,0.04580152671755725,-3.2900763358778624,0.10687022900763359,0.002318143844604492
330,0.130615234375,-0.0296630859375,-1.1915283203125,0.1984732824427481,-3.4656488549618323,0.015267175572519083,0.002317667007446289
331,0.131103515625,-0.0347900390625,-1.1912841796875,0.10687022900763359,-3.427480916030534,-0.07633587786259542,0.0023183822631835938
331,0.13134765625,-0.0306396484375,-1.1876220703125,0.030534351145038167,-3.4427480916030535,0.015267175572519083,0.002317190170288086
330,0.13720703125,-0.0279541015625,-1.1905517578125,0.17557251908396945,-3.4122137404580153,0.16030534351145037,0.0023179054260253906
329,0.130859375,-0.0306396484375,-1.1815185546875,-0.16030534351145037,-3.3969465648854964,0.10687022900763359,0.002317667007446289
328,0.1279296875,-0.0296630859375,-1.1915283203125,0.2595419847328244,-3.4656488549618323,0.03816793893129771,0.002318143844604492
328,0.130615234375,-0.0203857421875,-1.1829833984375,0.0916030534351145,-3.519083969465649,-0.022900763358778626,0.0025010108947753906
328,0.131103515625,-0.0323486328125,-1.1898193359375,-0.09923664122137404,-3.145038167938931,-0.09923664122137404,0.0023310184478759766
328,0.1318359375,-0.0306396484375,-1.1939697265625,0.007633587786259542,-3.519083969465649,-0.08396946564885496,0.0023217201232910156
329,0.13134765625,-0.0242919921875,-1.1978759765625,-0.03816793893129771,-3.5572519083969465,0.183206106870229,0.002317190170288086
328,0.127685546875,-0.0269775390625,-1.1920166015625,0.15267175572519084,-3.33587786259542,0.0916030534351145,0.0023179054260253906
327,0.12744140625,-0.0303955078125,-1.1925048828125,0.061068702290076333,-3.366412213740458,0.0916030534351145,0.0023179054260253906
327,0.129150390625,-0.0321044921875,-1.1922607421875,0.12213740458015267,-3.3435114503816794,0.12213740458015267,0.002469301223754883
326,0.13427734375,-0.0211181640625,-1.1942138671875,0.022900763358778626,-3.3282442748091605,-0.030534351145038167,0.0023212432861328125
326,0.1279296875,-0.0277099609375,-1.1934814453125,0.015267175572519083,-3.2748091603053435,0.25190839694656486,0.0023179054260253906
325,0.1279296875,-0.0228271484375,-1.1929931640625,0.061068702290076333,-3.50381679389313,0.0916030534351145,0.0023186206817626953
327,0.130615234375,-0.0306396484375,-1.1907958984375,0.09923664122137404,-3.33587786259542,-0.03816793893129771,0.002318859100341797
326,0.137939453125,-0.0272216796875,-1.1929931640625,0.11450381679389313,-3.5343511450381677,0.030534351145038167,0.002318143844604492
326,0.132080078125,-0.0267333984375,-1.1981201171875,0.05343511450381679,-3.351145038167939,-0.015267175572519083,0.0023186206817626953
326,0.12890625,-0.0247802734375,-1.1973876953125,0.17557251908396945,-3.3587786259541983,0.15267175572519084,0.0023174285888671875
324,0.127197265625,-0.0225830078125,-1.1910400390625,0.08396946564885496,-3.427480916030534,0.183206106870229,0.002318859100341797
325,0.13037109375,-0.0289306640625,-1.1915283203125,0.08396946564885496,-3.3206106870229006,-0.05343511450381679,0.002315521240234375
324,0.1357421875,-0.0228271484375,-1.2015380859375,0.0916030534351145,-3.519083969465649,0.17557251908396945,0.0023183822631835938
324,0.12646484375,-0.0208740234375,-1.1859130859375,0.06870229007633588,-3.2290076335877864,0.03816793893129771,0.0023179054260253906
324,0.1328125,-0.0255126953125,-1.1964111328125,0.22900763358778625,-3.435114503816794,0.10687022900763359,0.002317190170288086
323,0.1318359375,-0.0240478515625,-1.1927490234375,0.12213740458015267,-3.427480916030534,0.13740458015267176,0.0023179054260253906
323,0.13232421875,-0.0211181640625,-1.1839599609375,0.13740458015267176,-3.3435114503816794,0.15267175572519084,0.0023179054260253906
324,0.1337890625,-0.0257568359375,-1.1900634765625,0.09923664122137404,-3.3435114503816794,0.19083969465648856,0.002317190170288086
323,0.130126953125,-0.0230712890625,-1.1971435546875,-0.16793893129770993,-3.2900763358778624,0.09923664122137404,0.002317190170288086
322,0.132080078125,-0.0330810546875,-1.1929931640625,0.06870229007633588,-3.2900763358778624,0.11450381679389313,0.0023179054260253906
322,0.135009765625,-0.0260009765625,-1.1968994140625,0.06870229007633588,-3.3740458015267176,0.030534351145038167,0.002335786819458008
322,0.134521484375,-0.0272216796875,-1.1873779296875,-0.03816793893129771,-3.381679389312977,0.08396946564885496,0.0023190975189208984
321,0.132080078125,-0.0301513671875,-1.1866455078125,0.12213740458015267,-3.3740458015267176,0.09923664122137404,0.0023186206817626953
322,0.136474609375,-0.0303955078125,-1.1820068359375,0.022900763358778626,-3.2061068702290076,0.20610687022900764,0.0023162364959716797
322,0.131103515625,-0.0350341796875,-1.1893310546875,0.11450381679389313,-3.3969465648854964,0.04580152671755725,0.0023183822631835938
322,0.12890625,-0.0277099609375,-1.1951904296875,0.030534351145038167,-3.236641221374046,0.06870229007633588,0.002317667007446289
321,0.132568359375,-0.0262451171875,-1.1859130859375,0.04580152671755725,-3.4122137404580153,0.04580152671755725,0.0023169517517089844
321,0.13623046875,-0.0240478515625,-1.1927490234375,0.061068702290076333,-3.3740458015267176,0.22137404580152673,0.002317667007446289
320,0.13525390625,-0.0252685546875,-1.1964111328125,0.0,-3.3893129770992365,0.007633587786259542,0.0023164749145507812
319,0.13525390625,-0.0252685546875,-1.1971435546875,-0.04580152671755725,-3.427480916030534,0.10687022900763359,0.0023186206817626953
320,0.138427734375,-0.0233154296875,-1.1925048828125,0.10687022900763359,-3.366412213740458,0.007633587786259542,0.0023179054260253906
319,0.126953125,-0.0269775390625,-1.1868896484375,0.10687022900763359,-3.2595419847328246,0.07633587786259542,0.002319812774658203
320,0.123779296875,-0.0262451171875,-1.1951904296875,-0.11450381679389313,-3.3969465648854964,0.2595419847328244,0.002317190170288086
320,0.138671875,-0.0279541015625,-1.1929931640625,0.06870229007633588,-3.2900763358778624,0.13740458015267176,0.002318143844604492
320,0.13427734375,-0.0272216796875,-1.1973876953125,0.0,-3.435114503816794,0.0,0.0023174285888671875
319,0.138916015625,-0.0267333984375,-1.1966552734375,0.030534351145038167,-3.2900763358778624,0.15267175572519084,0.0023140907287597656
319,0.1328125,-0.0281982421875,-1.1947021484375,0.19083969465648856,-3.450381679389313,-0.015267175572519083,0.002317667007446289
318,0.127197265625,-0.0255126953125,-1.1988525390625,0.0916030534351145,-3.3969465648854964,-0.007633587786259542,0.002317667007446289
318,0.135986328125,-0.0267333984375,-1.1903076171875,0.07633587786259542,-3.366412213740458,-0.07633587786259542,0.0023186206817626953
318,0.13720703125,-0.0250244140625,-1.1937255859375,0.007633587786259542,-3.366412213740458,0.07633587786259542,0.002318859100341797
318,0.13427734375,-0.0272216796875,-1.1915283203125,0.06870229007633588,-3.4122137404580153,0.1450381679389313,0.0023174285888671875
318,0.123779296875,-0.0255126953125,-1.1920166015625,0.11450381679389313,-3.3969465648854964,0.05343511450381679,0.0023186206817626953
318,0.12841796875,-0.0247802734375,-1.1917724609375,-0.13740458015267176,-3.6106870229007635,0.015267175572519083,0.0023169517517089844
317,0.135498046875,-0.0325927734375,-1.1951904296875,0.0,-3.3587786259541983,-0.26717557251908397,0.002347230911254883
317,0.130126953125,-0.0269775390625,-1.1944580078125,0.030534351145038167,-3.648854961832061,0.061068702290076333,0.0023217201232910156
317,0.1357421875,-0.0286865234375,-1.2034912109375,0.04580152671755725,-3.312977099236641,0.05343511450381679,0.002318859100341797
317,0.136962890625,-0.0279541015625,-1.1922607421875,0.0,-3.2977099236641223,0.1450381679389313,0.002317667007446289
316,0.12744140625,-0.0213623046875,-1.1817626953125,0.0,-3.312977099236641,0.22137404580152673,0.002315521240234375
316,0.1328125,-0.0269775390625,-1.1888427734375,-0.030534351145038167,-3.450381679389313,0.11450381679389313,0.002315521240234375
315,0.135498046875,-0.0311279296875,-1.1973876953125,0.030534351145038167,-3.4427480916030535,-0.007633587786259542,0.0023179054260253906
315,0.1328125,-0.0274658203125,-1.1934814453125,0.0,-3.2519083969465647,0.07633587786259542,0.002318859100341797
316,0.142822265625,-0.0291748046875,-1.1890869140625,0.1297709923664122,-3.4580152671755724,-0.11450381679389313,0.0023360252380371094
315,0.1328125,-0.0318603515625,-1.1834716796875,0.11450381679389313,-3.6106870229007635,0.17557251908396945,0.0023207664489746094
315,0.13330078125,-0.0267333984375,-1.2020263671875,-0.022900763358778626,-3.5419847328244276,-0.05343511450381679,0.0023179054260253906
314,0.133056640625,-0.0296630859375,-1.1934814453125,0.07633587786259542,-3.4656488549618323,0.0916030534351145,0.0023169517517089844
314,0.136962890625,-0.0325927734375,-1.1951904296875,0.05343511450381679,-3.2977099236641223,0.07633587786259542,0.003567934036254883
313,0.13134765625,-0.0264892578125,-1.1917724609375,-0.015267175572519083,-3.4885496183206106,-0.015267175572519083,0.0023610591888427734
313,0.127685546875,-0.0252685546875,-1.1922607421875,0.09923664122137404,-3.2977099236641223,0.09923664122137404,0.0023212432861328125
313,0.13037109375,-0.0294189453125,-1.1759033203125,-0.06870229007633588,-3.381679389312977,0.022900763358778626,0.0024776458740234375
314,0.13232421875,-0.0252685546875,-1.1929931640625,0.07633587786259542,-3.427480916030534,0.03816793893129771,0.002331256866455078
313,0.130126953125,-0.0267333984375,-1.1939697265625,0.05343511450381679,-3.3206106870229006,0.22900763358778625,0.0023179054260253906
313,0.1337890625,-0.0277099609375,-1.1944580078125,0.08396946564885496,-3.5343511450381677,0.08396946564885496,0.0023193359375
312,0.1328125,-0.0289306640625,-1.1922607421875,0.1297709923664122,-3.549618320610687,0.030534351145038167,0.0023169517517089844
311,0.13623046875,-0.0264892578125,-1.1883544921875,0.12213740458015267,-3.4427480916030535,0.0,0.002317190170288086
311,0.13427734375,-0.0264892578125,-1.1888427734375,0.04580152671755725,-3.381679389312977,0.1297709923664122,0.0023174285888671875
311,0.135986328125,-0.0245361328125,-1.1915283203125,0.08396946564885496,-3.519083969465649,-0.007633587786259542,0.0023183822631835938
312,0.131591796875,-0.0255126953125,-1.1878662109375,0.11450381679389313,-3.5801526717557253,-0.030534351145038167,0.0023193359375
311,0.13232421875,-0.0235595703125,-1.1824951171875,0.061068702290076333,-3.2900763358778624,0.09923664122137404,0.0023179054260253906
311,0.134033203125,-0.0301513671875,-1.1981201171875,0.0916030534351145,-3.480916030534351,-0.022900763358778626,0.0023179054260253906
311,0.136474609375,-0.0303955078125,-1.1934814453125,0.08396946564885496,-3.3740458015267176,-0.0916030534351145,0.0023183822631835938
310,0.132568359375,-0.0255126953125,-1.1949462890625,0.007633587786259542,-3.3893129770992365,0.08396946564885496,0.002318859100341797
310,0.135498046875,-0.0257568359375,-1.1968994140625,0.16030534351145037,-3.404580152671756,0.11450381679389313,0.002318143844604492
309,0.13427734375,-0.0289306640625,-1.1954345703125,-0.04580152671755725,-3.3282442748091605,0.030534351145038167,0.002318143844604492
310,0.134521484375,-0.0220947265625,-1.1898193359375,0.0916030534351145,-3.3893129770992365,-0.08396946564885496,0.002318859100341797
309,0.131103515625,-0.0240478515625,-1.1939697265625,-0.007633587786259542,-3.480916030534351,-0.04580152671755725,0.002318143844604492
309,0.1298828125,-0.0255126953125,-1.1895751953125,0.06870229007633588,-3.4732824427480917,0.20610687022900764,0.0023190975189208984
310,0.1357421875,-0.0284423828125,-1.1893310546875,0.07633587786259542,-3.2595419847328246,-0.11450381679389313,0.002317667007446289
309,0.134765625,-0.0247802734375,-1.1917724609375,0.007633587786259542,-3.4732824427480917,0.183206106870229,0.002317667007446289
308,0.133544921875,-0.0211181640625,-1.1900634765625,0.11450381679389313,-3.312977099236641,0.030534351145038167,0.002318859100341797
308,0.136474609375,-0.0269775390625,-1.1856689453125,0.0,-3.4885496183206106,0.11450381679389313,0.002318143844604492
307,0.129638671875,-0.0267333984375,-1.1929931640625,-0.007633587786259542,-3.366412213740458,0.04580152671755725,0.002317190170288086
307,0.134033203125,-0.0260009765625,-1.1844482421875,-0.07633587786259542,-3.427480916030534,0.0,0.0023174285888671875
307,0.13525390625,-0.0262451171875,-1.1898193359375,-0.06870229007633588,-3.4122137404580153,0.022900763358778626,0.0023162364959716797
307,0.130859375,-0.0230712890625,-1.1878662109375,0.05343511450381679,-3.4427480916030535,-0.04580152671755725,0.002318143844604492
307,0.132568359375,-0.0286865234375,-1.1864013671875,0.0,-3.3587786259541983,0.17557251908396945,0.0023179054260253906
307,0.1298828125,-0.0289306640625,-1.1856689453125,-0.04580152671755725,-3.5343511450381677,0.05343511450381679,0.0023169517517089844
307,0.135498046875,-0.0347900390625,-1.1934814453125,0.08396946564885496,-3.4198473282442747,0.11450381679389313,0.002317667007446289
307,0.13330078125,-0.0267333984375,-1.1885986328125,-0.061068702290076333,-3.1755725190839694,0.2748091603053435,0.002676725387573242
306,0.13623046875,-0.0306396484375,-1.1968994140625,0.030534351145038167,-3.4122137404580153,-0.05343511450381679,0.002321481704711914
305,0.136474609375,-0.0245361328125,-1.1922607421875,-0.13740458015267176,-3.33587786259542,0.08396946564885496,0.0023195743560791016
305,0.12890625,-0.0313720703125,-1.1973876953125,0.022900763358778626,-3.366412213740458,0.12213740458015267,0.0023193359375
306,0.128662109375,-0.0294189453125,-1.1956787109375,0.03816793893129771,-3.49618320610687,0.1450381679389313,0.0023164749145507812
305,0.132080078125,-0.0355224609375,-1.1925048828125,-0.0916030534351145,-3.4427480916030535,0.007633587786259542,0.0023186206817626953
304,0.135986328125,-0.0252685546875,-1.1973876953125,0.08396946564885496,-3.4732824427480917,0.12213740458015267,0.0023183822631835938
305,0.134033203125,-0.0277099609375,-1.1983642578125,0.061068702290076333,-3.3969465648854964,-0.007633587786259542,0.002317190170288086
304,0.130615234375,-0.0264892578125,-1.1898193359375,-0.030534351145038167,-3.480916030534351,-0.015267175572519083,0.002391815185546875
304,0.1328125,-0.0257568359375,-1.1942138671875,0.015267175572519083,-3.3740458015267176,-0.007633587786259542,0.0023217201232910156
303,0.138671875,-0.0301513671875,-1.1890869140625,0.007633587786259542,-3.3282442748091605,0.09923664122137404,0.002319812774658203
304,0.130615234375,-0.0296630859375,-1.1903076171875,0.07633587786259542,-3.687022900763359,-0.07633587786259542,0.002317667007446289
303,0.13623046875,-0.0289306640625,-1.1929931640625,-0.015267175572519083,-3.3282442748091605,-0.07633587786259542,0.0023207664489746094
303,0.137939453125,-0.0274658203125,-1.1898193359375,0.03816793893129771,-3.427480916030534,-0.030534351145038167,0.0023186206817626953
303,0.13232421875,-0.0296630859375,-1.1885986328125,-0.05343511450381679,-3.5114503816793894,0.05343511450381679,0.002317667007446289
303,0.135009765625,-0.0267333984375,-1.1920166015625,-0.04580152671755725,-3.4122137404580153,-0.030534351145038167,0.002321004867553711
303,0.13525390625,-0.0255126953125,-1.1815185546875,0.022900763358778626,-3.4732824427480917,0.0916030534351145,0.002316713333129883
302,0.13134765625,-0.0277099609375,-1.1925048828125,0.11450381679389313,-3.5801526717557253,-0.05343511450381679,0.002318143844604492
302,0.136962890625,-0.0316162109375,-1.1873779296875,-0.007633587786259542,-3.6106870229007635,0.0,0.0023179054260253906
301,0.13134765625,-0.0213623046875,-1.1888427734375,0.183206106870229,-3.3969465648854964,-0.10687022900763359,0.002318143844604492
301,0.136474609375,-0.0289306640625,-1.1915283203125,0.007633587786259542,-3.2213740458015265,-0.015267175572519083,0.002317667007446289
301,0.131591796875,-0.0225830078125,-1.2008056640625,-0.061068702290076333,-3.5572519083969465,0.007633587786259542,0.0023179054260253906
302,0.133544921875,-0.0257568359375,-1.1971435546875,0.09923664122137404,-3.435114503816794,-0.08396946564885496,0.002318859100341797
301,0.126220703125,-0.0303955078125,-1.1917724609375,0.19083969465648856,-3.3587786259541983,0.030534351145038167,0.002316713333129883
302,0.134521484375,-0.0269775390625,-1.1903076171875,-0.05343511450381679,-3.519083969465649,0.04580152671755725,0.002318143844604492
301,0.12841796875,-0.0250244140625,-1.1856689453125,0.1297709923664122,-3.5114503816793894,0.0916030534351145,0.0023179054260253906
300,0.131591796875,-0.0272216796875,-1.1968994140625,-0.022900763358778626,-3.50381679389313,0.15267175572519084,0.0023174285888671875
300,0.126953125,-0.0264892578125,-1.1864013671875,0.16030534351145037,-3.6030534351145036,0.022900763358778626,0.0023183822631835938
299,0.12939453125,-0.0279541015625,-1.1903076171875,0.10687022900763359,-3.3587786259541983,0.11450381679389313,0.0023164749145507812
299,0.13232421875,-0.0294189453125,-1.1937255859375,0.06870229007633588,-3.6106870229007635,0.183206106870229,0.002317667007446289
300,0.134765625,-0.0223388671875,-1.1927490234375,0.1297709923664122,-3.366412213740458,0.26717557251908397,0.0023162364959716797
300,0.1298828125,-0.0230712890625,-1.1939697265625,0.015267175572519083,-3.7022900763358777,-0.10687022900763359,0.0023169517517089844
299,0.135009765625,-0.0250244140625,-1.1900634765625,0.16030534351145037,-3.3587786259541983,0.07633587786259542,0.0023169517517089844
300,0.137451171875,-0.0194091796875,-1.1898193359375,0.09923664122137404,-3.480916030534351,0.05343511450381679,0.0024597644805908203
298,0.129638671875,-0.0235595703125,-1.1851806640625,-0.08396946564885496,-3.4885496183206106,0.0,0.0023298263549804688
298,0.135009765625,-0.0245361328125,-1.1903076171875,0.12213740458015267,-3.4580152671755724,0.11450381679389313,0.0023169517517089844
298,0.13427734375,-0.0279541015625,-1.1903076171875,0.0,-3.5801526717557253,0.17557251908396945,0.0023179054260253906
298,0.1337890625,-0.0225830078125,-1.1842041015625,-0.015267175572519083,-3.427480916030534,0.0,0.002315998077392578
298,0.12841796875,-0.0267333984375,-1.1937255859375,0.061068702290076333,-3.450381679389313,0.05343511450381679,0.0023164749145507812
298,0.130859375,-0.0245361328125,-1.1885986328125,0.16030534351145037,-3.381679389312977,-0.11450381679389313,0.0023195743560791016
298,0.13037109375,-0.0277099609375,-1.2000732421875,0.05343511450381679,-3.33587786259542,-0.10687022900763359,0.0023162364959716797
298,0.133544921875,-0.0242919921875,-1.1922607421875,0.030534351145038167,-3.351145038167939,0.015267175572519083,0.002347230911254883
297,0.12744140625,-0.0228271484375,-1.1890869140625,0.04580152671755725,-3.3969465648854964,0.19083969465648856,0.0023272037506103516
298,0.135986328125,-0.0277099609375,-1.1832275390625,0.17557251908396945,-3.3053435114503817,0.1450381679389313,0.0023186206817626953
297,0.1337890625,-0.0345458984375,-1.1917724609375,0.03816793893129771,-3.595419847328244,-0.007633587786259542,0.0023179054260253906
297,0.131103515625,-0.0328369140625,-1.1878662109375,0.05343511450381679,-3.2595419847328246,0.0,0.0023186206817626953
296,0.131103515625,-0.0230712890625,-1.1895751953125,0.19083969465648856,-3.2595419847328246,0.22137404580152673,0.002316713333129883
297,0.132568359375,-0.0247802734375,-1.1927490234375,0.1450381679389313,-3.427480916030534,0.09923664122137404,0.0023164749145507812
297,0.13037109375,-0.0225830078125,-1.1837158203125,-0.06870229007633588,-3.1755725190839694,-0.15267175572519084,0.0023729801177978516
297,0.138916015625,-0.0279541015625,-1.1898193359375,0.007633587786259542,-3.5267175572519083,-0.022900763358778626,0.0023221969604492188
297,0.131591796875,-0.0252685546875,-1.1986083984375,-0.007633587786259542,-3.3893129770992365,0.015267175572519083,0.0023365020751953125
297,0.130615234375,-0.0284423828125,-1.1968994140625,0.03816793893129771,-3.351145038167939,0.12213740458015267,0.0023193359375
296,0.1328125,-0.0277099609375,-1.1903076171875,0.22137404580152673,-3.6259541984732824,0.10687022900763359,0.0023169517517089844
296,0.13818359375,-0.0274658203125,-1.1834716796875,0.007633587786259542,-3.351145038167939,0.10687022900763359,0.002318143844604492
296,0.128662109375,-0.0274658203125,-1.1912841796875,0.06870229007633588,-3.2977099236641223,0.05343511450381679,0.0023162364959716797
296,0.125244140625,-0.0318603515625,-1.1905517578125,0.16030534351145037,-3.4198473282442747,0.10687022900763359,0.0023174285888671875
296,0.130615234375,-0.0245361328125,-1.1917724609375,-0.007633587786259542,-3.435114503816794,0.061068702290076333,0.002317667007446289
295,0.131103515625,-0.0303955078125,-1.1873779296875,-0.007633587786259542,-3.564885496183206,0.1297709923664122,0.0023169517517089844
296,0.132568359375,-0.0308837890625,-1.1888427734375,0.09923664122137404,-3.381679389312977,0.09923664122137404,0.0023186206817626953
296,0.134033203125,-0.0262451171875,-1.1890869140625,0.007633587786259542,-3.435114503816794,-0.007633587786259542,0.0023174285888671875
295,0.134033203125,-0.0264892578125,-1.1868896484375,0.0,-3.450381679389313,0.007633587786259542,0.0023183822631835938
295,0.136474609375,-0.0301513671875,-1.1944580078125,0.15267175572519084,-3.480916030534351,0.25190839694656486,0.002315044403076172
295,0.132080078125,-0.0250244140625,-1.1839599609375,0.11450381679389313,-3.3969465648854964,0.007633587786259542,0.0023174285888671875
295,0.140625,-0.0284423828125,-1.1917724609375,0.1450381679389313,-3.4885496183206106,0.03816793893129771,0.0023446083068847656
295,0.135986328125,-0.0296630859375,-1.1925048828125,0.08396946564885496,-3.4885496183206106,0.15267175572519084,0.0023190975189208984
295,0.130615234375,-0.0284423828125,-1.1915283203125,0.09923664122137404,-3.312977099236641,0.11450381679389313,0.0023193359375
295,0.133056640625,-0.0272216796875,-1.1976318359375,0.11450381679389313,-3.351145038167939,0.15267175572519084,0.0023174285888671875
295,0.1318359375,-0.0267333984375,-1.1907958984375,0.183206106870229,-3.4122137404580153,0.16793893129770993,0.0023186206817626953
295,0.125244140625,-0.0318603515625,-1.1937255859375,-0.022900763358778626,-3.49618320610687,0.0916030534351145,0.0023174285888671875
295,0.13427734375,-0.0306396484375,-1.1917724609375,0.061068702290076333,-3.4656488549618323,0.05343511450381679,0.002318143844604492
295,0.13525390625,-0.0240478515625,-1.1956787109375,0.015267175572519083,-3.5114503816793894,-0.1450381679389313,0.002318859100341797
294,0.129638671875,-0.0262451171875,-1.1956787109375,0.183206106870229,-3.450381679389313,0.12213740458015267,0.002317190170288086
294,0.135009765625,-0.0264892578125,-1.1873779296875,0.0916030534351145,-3.5114503816793894,0.06870229007633588,0.0023179054260253906
294,0.13525390625,-0.0281982421875,-1.1871337890625,0.16030534351145037,-3.4198473282442747,0.05343511450381679,0.0023179054260253906
295,0.133544921875,-0.0289306640625,-1.1868896484375,0.2900763358778626,-3.366412213740458,0.007633587786259542,0.0023183822631835938
295,0.131591796875,-0.0277099609375,-1.1903076171875,0.07633587786259542,-3.427480916030534,0.09923664122137404,0.002317190170288086
295,0.135986328125,-0.0269775390625,-1.1861572265625,0.19083969465648856,-3.49618320610687,0.1984732824427481,0.002318143844604492
294,0.129638671875,-0.0289306640625,-1.1895751953125,0.16793893129770993,-3.3053435114503817,0.030534351145038167,0.002319812774658203
294,0.139404296875,-0.0247802734375,-1.1949462890625,0.1297709923664122,-3.450381679389313,0.03816793893129771,0.002316713333129883
293,0.130615234375,-0.0242919921875,-1.1915283203125,0.183206106870229,-3.4656488549618323,0.12213740458015267,0.0023179054260253906
294,0.137939453125,-0.0262451171875,-1.1903076171875,0.03816793893129771,-3.427480916030534,0.10687022900763359,0.0023183822631835938
295,0.142822265625,-0.0247802734375,-1.1903076171875,0.1297709923664122,-3.4198473282442747,0.1297709923664122,0.002318143844604492
295,0.13134765625,-0.0294189453125,-1.1844482421875,0.16793893129770993,-3.4122137404580153,0.0916030534351145,0.002317667007446289
294,0.132568359375,-0.0262451171875,-1.1893310546875,0.061068702290076333,-3.4427480916030535,0.015267175572519083,0.0023169517517089844
295,0.1298828125,-0.0289306640625,-1.1964111328125,0.06870229007633588,-3.5343511450381677,0.022900763358778626,0.002318859100341797
294,0.135986328125,-0.0230712890625,-1.1959228515625,0.015267175572519083,-3.4656488549618323,0.022900763358778626,0.0023164749145507812
294,0.1337890625,-0.0260009765625,-1.1954345703125,0.1450381679389313,-3.5572519083969465,0.08396946564885496,0.0023496150970458984
294,0.13134765625,-0.0286865234375,-1.1920166015625,0.04580152671755725,-3.33587786259542,0.04580152671755725,0.0023179054260253906
293,0.1318359375,-0.0272216796875,-1.1959228515625,0.10687022900763359,-3.4885496183206106,-0.04580152671755725,0.0023174285888671875
293,0.134033203125,-0.0274658203125,-1.1871337890625,0.030534351145038167,-3.4198473282442747,0.0916030534351145,0.002318143844604492
294,0.12939453125,-0.0250244140625,-1.1871337890625,0.08396946564885496,-3.267175572519084,0.030534351145038167,0.0023169517517089844
294,0.136474609375,-0.0303955078125,-1.1929931640625,0.13740458015267176,-3.6030534351145036,0.061068702290076333,0.002317667007446289
295,0.132080078125,-0.0311279296875,-1.1973876953125,0.022900763358778626,-3.50381679389313,0.0,0.0023179054260253906
295,0.13134765625,-0.0281982421875,-1.1944580078125,0.030534351145038167,-3.213740458015267,0.16030534351145037,0.0023174285888671875
294,0.137939453125,-0.0279541015625,-1.1910400390625,0.1297709923664122,-3.5343511450381677,0.25190839694656486,0.0023317337036132812
293,0.12890625,-0.0291748046875,-1.1959228515625,0.16793893129770993,-3.4427480916030535,0.061068702290076333,0.0024416446685791016
293,0.13525390625,-0.0296630859375,-1.1885986328125,0.11450381679389313,-3.5114503816793894,0.030534351145038167,0.0023279190063476562
293,0.13037109375,-0.0277099609375,-1.1973876953125,0.07633587786259542,-3.5114503816793894,0.3053435114503817,0.0023179054260253906
294,0.134521484375,-0.0277099609375,-1.1966552734375,0.183206106870229,-3.3053435114503817,-0.09923664122137404,0.002317667007446289
293,0.127197265625,-0.0279541015625,-1.1866455078125,0.1297709923664122,-3.381679389312977,-0.007633587786259542,0.002317190170288086
294,0.12109375,-0.0286865234375,-1.2000732421875,0.13740458015267176,-3.381679389312977,0.09923664122137404,0.002318143844604492
294,0.133544921875,-0.0328369140625,-1.1927490234375,-0.061068702290076333,-3.6030534351145036,-0.0916030534351145,0.0023179054260253906
294,0.13720703125,-0.0233154296875,-1.2154541015625,0.32061068702290074,-3.5572519083969465,0.10687022900763359,0.002318143844604492
294,0.13330078125,-0.0321044921875,-1.1749267578125,0.12213740458015267,-3.4580152671755724,0.22900763358778625,0.0023193359375
293,0.12939453125,-0.0306396484375,-1.1888427734375,0.16030534351145037,-3.267175572519084,0.07633587786259542,0.002317667007446289
293,0.137939453125,-0.0301513671875,-1.1776123046875,0.007633587786259542,-3.3587786259541983,-0.061068702290076333,0.0023169517517089844
293,0.13037109375,-0.0284423828125,-1.1817626953125,0.33587786259541985,-3.0381679389312977,0.015267175572519083,0.002331256866455078
292,0.130126953125,-0.0269775390625,-1.1944580078125,-0.1450381679389313,-3.480916030534351,0.007633587786259542,0.002318143844604492
293,0.1357421875,-0.0267333984375,-1.1905517578125,0.183206106870229,-3.5343511450381677,-0.04580152671755725,0.002318859100341797
293,0.13330078125,-0.0296630859375,-1.1900634765625,0.030534351145038167,-3.5267175572519083,0.17557251908396945,0.002317667007446289
292,0.129638671875,-0.0303955078125,-1.1812744140625,0.16793893129770993,-3.427480916030534,0.0916030534351145,0.0023179054260253906
293,0.1318359375,-0.0240478515625,-1.1973876953125,0.26717557251908397,-3.3587786259541983,0.08396946564885496,0.0023174285888671875
292,0.139892578125,-0.0316162109375,-1.1881103515625,0.22137404580152673,-3.267175572519084,0.015267175572519083,0.002317190170288086
293,0.136474609375,-0.0321044921875,-1.1964111328125,0.061068702290076333,-3.1526717557251906,0.061068702290076333,0.0023174285888671875
292,0.130615234375,-0.0252685546875,-1.1898193359375,0.21374045801526717,-3.5267175572519083,0.11450381679389313,0.0023162364959716797
293,0.133544921875,-0.0245361328125,-1.1932373046875,0.10687022900763359,-3.5572519083969465,0.0,0.0023174285888671875
292,0.132568359375,-0.0296630859375,-1.1898193359375,0.06870229007633588,-3.3740458015267176,0.08396946564885496,0.002315521240234375
292,0.12646484375,-0.0267333984375,-1.1866455078125,0.15267175572519084,-3.2748091603053435,0.03816793893129771,0.0023174285888671875
294,0.133056640625,-0.0303955078125,-1.1988525390625,0.12213740458015267,-3.450381679389313,0.10687022900763359,0.0023818016052246094
293,0.143798828125,-0.0286865234375,-1.1949462890625,0.0916030534351145,-3.595419847328244,0.03816793893129771,0.0023212432861328125
292,0.137939453125,-0.0286865234375,-1.1907958984375,0.04580152671755725,-3.5343511450381677,0.0916030534351145,0.0023190975189208984
292,0.14013671875,-0.0228271484375,-1.1988525390625,0.04580152671755725,-3.1755725190839694,0.015267175572519083,0.002317667007446289
292,0.1318359375,-0.0294189453125,-1.1871337890625,0.13740458015267176,-3.4732824427480917,0.22900763358778625,0.0023183822631835938
291,0.13525390625,-0.0269775390625,-1.1932373046875,0.07633587786259542,-3.4198473282442747,-0.007633587786259542,0.002317190170288086
291,0.132568359375,-0.0296630859375,-1.1878662109375,0.16793893129770993,-3.4656488549618323,0.19083969465648856,0.0023179054260253906
292,0.1279296875,-0.0279541015625,-1.1937255859375,0.007633587786259542,-3.3740458015267176,0.0916030534351145,0.002318143844604492
291,0.1279296875,-0.0291748046875,-1.1888427734375,-0.007633587786259542,-3.3969465648854964,0.08396946564885496,0.0023164749145507812
292,0.129638671875,-0.0274658203125,-1.1932373046875,0.183206106870229,-3.3206106870229006,0.015267175572519083,0.002361774444580078
292,0.133056640625,-0.0277099609375,-1.1864013671875,0.04580152671755725,-3.595419847328244,0.030534351145038167,0.002330303192138672
292,0.133056640625,-0.0335693359375,-1.1898193359375,0.007633587786259542,-3.3282442748091605,0.030534351145038167,0.0023190975189208984
292,0.137451171875,-0.0262451171875,-1.1832275390625,0.03816793893129771,-3.2442748091603053,-0.10687022900763359,0.002318859100341797
291,0.136474609375,-0.0238037109375,-1.1964111328125,0.03816793893129771,-3.6106870229007635,0.007633587786259542,0.0023190975189208984
290,0.1318359375,-0.0296630859375,-1.2003173828125,0.0,-3.33587786259542,0.1297709923664122,0.002318143844604492
291,0.1318359375,-0.0277099609375,-1.1905517578125,-0.08396946564885496,-3.450381679389313,0.2748091603053435,0.002315521240234375
291,0.14013671875,-0.0245361328125,-1.1993408203125,0.12213740458015267,-3.3740458015267176,0.061068702290076333,0.0023179054260253906
292,0.130859375,-0.0255126953125,-1.1876220703125,0.21374045801526717,-3.1526717557251906,0.061068702290076333,0.002317667007446289
291,0.13330078125,-0.0250244140625,-1.1925048828125,0.0,-3.480916030534351,-0.07633587786259542,0.002344369888305664
292,0.130859375,-0.0252685546875,-1.1829833984375,-0.1450381679389313,-3.33587786259542,0.007633587786259542,0.002318143844604492
290,0.135986328125,-0.0299072265625,-1.2052001953125,0.11450381679389313,-3.6412213740458017,-0.07633587786259542,0.0023169517517089844
291,0.1328125,-0.0289306640625,-1.1763916015625,0.21374045801526717,-3.50381679389313,0.12213740458015267,0.002321481704711914
291,0.130859375,-0.0284423828125,-1.1981201171875,0.13740458015267176,-3.3206106870229006,0.183206106870229,0.0023157596588134766
290,0.133056640625,-0.0294189453125,-1.1829833984375,0.07633587786259542,-3.16793893129771,0.015267175572519083,0.0024318695068359375
291,0.13427734375,-0.0269775390625,-1.1973876953125,0.0916030534351145,-3.49618320610687,0.0,0.002427816390991211
290,0.13134765625,-0.0301513671875,-1.1947021484375,0.0,-3.381679389312977,0.06870229007633588,0.002357006072998047
291,0.135498046875,-0.0301513671875,-1.1981201171875,-0.07633587786259542,-3.5267175572519083,-0.04580152671755725,0.0023202896118164062
290,0.12939453125,-0.0257568359375,-1.1949462890625,0.0,-3.3740458015267176,0.015267175572519083,0.0023195743560791016
291,0.13427734375,-0.0260009765625,-1.1964111328125,0.007633587786259542,-3.5267175572519083,-0.04580152671755725,0.0023174285888671875
289,0.128173828125,-0.0269775390625,-1.1971435546875,0.030534351145038167,-3.2748091603053435,0.1450381679389313,0.0023186206817626953
289,0.130859375,-0.0277099609375,-1.1993408203125,0.0,-3.5267175572519083,-0.007633587786259542,0.002321004867553711
289,0.12841796875,-0.0272216796875,-1.1956787109375,0.04580152671755725,-3.4656488549618323,0.06870229007633588,0.0023174285888671875
289,0.13134765625,-0.0272216796875,-1.1815185546875,0.0916030534351145,-3.3282442748091605,0.015267175572519083,0.0023174285888671875
290,0.13330078125,-0.0260009765625,-1.1895751953125,0.0,-3.2900763358778624,0.11450381679389313,0.002330303192138672
290,0.13330078125,-0.0247802734375,-1.1859130859375,-0.05343511450381679,-3.366412213740458,0.007633587786259542,0.002316713333129883
290,0.132080078125,-0.0284423828125,-1.1973876953125,-0.12213740458015267,-3.16793893129771,0.0,0.002321481704711914
290,0.127685546875,-0.0269775390625,-1.2073974609375,0.061068702290076333,-3.435114503816794,0.21374045801526717,0.0023157596588134766
289,0.13525390625,-0.0338134765625,-1.1864013671875,-0.04580152671755725,-3.435114503816794,0.022900763358778626,0.002318143844604492
289,0.130615234375,-0.0252685546875,-1.2008056640625,-0.1297709923664122,-3.4427480916030535,0.13740458015267176,0.0023190975189208984
289,0.1318359375,-0.0321044921875,-1.1947021484375,0.16793893129770993,-3.4732824427480917,0.2595419847328244,0.0024602413177490234
288,0.130859375,-0.0255126953125,-1.1944580078125,0.10687022900763359,-3.435114503816794,0.015267175572519083,0.0023314952850341797
288,0.130859375,-0.0260009765625,-1.2005615234375,-0.061068702290076333,-3.3740458015267176,-0.10687022900763359,0.002318859100341797
289,0.130126953125,-0.0296630859375,-1.1895751953125,0.06870229007633588,-3.450381679389313,0.1297709923664122,0.0023186206817626953
289,0.1279296875,-0.0274658203125,-1.2012939453125,0.1450381679389313,-3.49618320610687,-0.08396946564885496,0.002318143844604492
289,0.129150390625,-0.0240478515625,-1.1910400390625,-0.022900763358778626,-3.3893129770992365,0.24427480916030533,0.002317667007446289
287,0.13427734375,-0.0260009765625,-1.1973876953125,0.015267175572519083,-3.3969465648854964,-0.10687022900763359,0.002323150634765625
288,0.134765625,-0.0294189453125,-1.1995849609375,0.1984732824427481,-3.427480916030534,0.12213740458015267,0.002318859100341797
287,0.127685546875,-0.0299072265625,-1.1893310546875,-0.030534351145038167,-3.4580152671755724,0.03816793893129771,0.0023179054260253906
288,0.138427734375,-0.0299072265625,-1.1937255859375,0.05343511450381679,-3.50381679389313,0.09923664122137404,0.002318859100341797
287,0.13818359375,-0.0281982421875,-1.1978759765625,0.09923664122137404,-3.404580152671756,0.015267175572519083,0.0023179054260253906
289,0.1337890625,-0.0316162109375,-1.1993408203125,0.030534351145038167,-3.3969465648854964,0.16030534351145037,0.0023183822631835938
288,0.135498046875,-0.0335693359375,-1.1881103515625,0.007633587786259542,-3.3053435114503817,0.007633587786259542,0.002317667007446289
288,0.13525390625,-0.0264892578125,-1.1932373046875,0.1297709923664122,-3.480916030534351,0.015267175572519083,0.0023179054260253906
289,0.13623046875,-0.0328369140625,-1.1968994140625,0.15267175572519084,-3.5267175572519083,0.08396946564885496,0.0023174285888671875
287,0.13623046875,-0.0343017578125,-1.1876220703125,0.10687022900763359,-3.183206106870229,-0.030534351145038167,0.0023555755615234375
287,0.133056640625,-0.0240478515625,-1.1905517578125,0.05343511450381679,-3.4885496183206106,0.05343511450381679,0.0023229122161865234
287,0.134765625,-0.0240478515625,-1.1888427734375,-0.061068702290076333,-3.595419847328244,0.17557251908396945,0.002335071563720703
287,0.134521484375,-0.0230712890625,-1.1890869140625,0.16030534351145037,-3.3893129770992365,0.007633587786259542,0.002318859100341797
287,0.129150390625,-0.0203857421875,-1.1932373046875,0.07633587786259542,-3.2748091603053435,0.12213740458015267,0.0023174285888671875
288,0.13525390625,-0.0220947265625,-1.1915283203125,0.022900763358778626,-3.633587786259542,-0.09923664122137404,0.002317667007446289
288,0.130859375,-0.0321044921875,-1.1927490234375,0.11450381679389313,-3.450381679389313,0.1984732824427481,0.0023174285888671875
288,0.12939453125,-0.0296630859375,-1.1876220703125,0.03816793893129771,-3.236641221374046,-0.030534351145038167,0.002317667007446289
287,0.13427734375,-0.0318603515625,-1.2032470703125,0.1984732824427481,-3.519083969465649,-0.11450381679389313,0.002318143844604492
287,0.12841796875,-0.0311279296875,-1.1907958984375,0.007633587786259542,-3.267175572519084,0.061068702290076333,0.0023174285888671875
286,0.127197265625,-0.0274658203125,-1.1864013671875,0.04580152671755725,-3.3053435114503817,-0.030534351145038167,0.002318859100341797
287,0.1328125,-0.0250244140625,-1.1920166015625,0.05343511450381679,-3.2748091603053435,0.183206106870229,0.002317667007446289
286,0.13671875,-0.0247802734375,-1.1973876953125,0.03816793893129771,-3.3435114503816794,0.04580152671755725,0.0023169517517089844
287,0.129638671875,-0.0225830078125,-1.1922607421875,-0.015267175572519083,-3.4885496183206106,-0.061068702290076333,0.0025506019592285156
288,0.131103515625,-0.0250244140625,-1.1934814453125,0.1450381679389313,-3.435114503816794,0.015267175572519083,0.002337932586669922
287,0.131103515625,-0.0274658203125,-1.1898193359375,0.04580152671755725,-3.351145038167939,0.0,0.002318859100341797
287,0.125244140625,-0.0294189453125,-1.2017822265625,-0.030534351145038167,-3.618320610687023,-0.022900763358778626,0.002316713333129883
287,0.135009765625,-0.0272216796875,-1.1856689453125,0.1450381679389313,-3.2900763358778624,0.22900763358778625,0.002318859100341797
287,0.131103515625,-0.0230712890625,-1.1934814453125,0.0,-3.404580152671756,0.015267175572519083,0.002331256866455078
287,0.130126953125,-0.0321044921875,-1.1954345703125,0.15267175572519084,-3.2977099236641223,-0.11450381679389313,0.002318143844604492
286,0.129638671875,-0.0294189453125,-1.1971435546875,0.030534351145038167,-3.480916030534351,0.1450381679389313,0.002319812774658203
286,0.12841796875,-0.0301513671875,-1.1983642578125,-0.0916030534351145,-3.366412213740458,0.16793893129770993,0.0023164749145507812
287,0.135009765625,-0.0330810546875,-1.1925048828125,0.015267175572519083,-3.4122137404580153,-0.022900763358778626,0.0023183822631835938
287,0.1337890625,-0.0294189453125,-1.1883544921875,0.022900763358778626,-3.2442748091603053,0.022900763358778626,0.0023186206817626953
286,0.1279296875,-0.0296630859375,-1.1939697265625,0.16793893129770993,-3.5801526717557253,0.0916030534351145,0.0023179054260253906
286,0.12890625,-0.0291748046875,-1.1861572265625,0.07633587786259542,-3.2977099236641223,0.04580152671755725,0.0023179054260253906
286,0.13037109375,-0.0269775390625,-1.1888427734375,-0.061068702290076333,-3.549618320610687,0.10687022900763359,0.002317667007446289
286,0.133056640625,-0.0333251953125,-1.1895751953125,0.0916030534351145,-3.2442748091603053,0.17557251908396945,0.0023353099822998047
285,0.137451171875,-0.0274658203125,-1.1932373046875,0.16030534351145037,-3.2900763358778624,0.007633587786259542,0.002323627471923828
285,0.13330078125,-0.0291748046875,-1.1990966796875,-0.09923664122137404,-3.5343511450381677,0.17557251908396945,0.002321004867553711
286,0.1328125,-0.0311279296875,-1.1954345703125,0.1984732824427481,-3.3206106870229006,0.1984732824427481,0.002318143844604492
286,0.135009765625,-0.0325927734375,-1.1864013671875,0.030534351145038167,-3.351145038167939,0.20610687022900764,0.0023174285888671875
286,0.125,-0.0313720703125,-1.1866455078125,0.07633587786259542,-3.267175572519084,-0.13740458015267176,0.0023179054260253906
285,0.134765625,-0.0318603515625,-1.1961669921875,0.06870229007633588,-3.3893129770992365,0.16030534351145037,0.0023169517517089844
285,0.13330078125,-0.0277099609375,-1.1976318359375,0.13740458015267176,-3.450381679389313,0.1984732824427481,0.0023164749145507812
286,0.131103515625,-0.0303955078125,-1.1824951171875,0.03816793893129771,-3.4656488549618323,0.030534351145038167,0.002317190170288086
285,0.135986328125,-0.0301513671875,-1.1854248046875,-0.030534351145038167,-3.3969465648854964,0.1297709923664122,0.0023169517517089844
285,0.12841796875,-0.0245361328125,-1.2012939453125,0.0,-3.4122137404580153,-0.03816793893129771,0.0023186206817626953
286,0.1328125,-0.0286865234375,-1.1932373046875,0.08396946564885496,-3.427480916030534,-0.030534351145038167,0.002316713333129883
285,0.134033203125,-0.0284423828125,-1.1983642578125,0.015267175572519083,-3.3893129770992365,-0.11450381679389313,0.0023174285888671875
286,0.132080078125,-0.0289306640625,-1.1920166015625,0.15267175572519084,-3.549618320610687,0.15267175572519084,0.0023174285888671875
286,0.1328125,-0.0274658203125,-1.2000732421875,-0.015267175572519083,-3.366412213740458,0.08396946564885496,0.0023479461669921875
286,0.12939453125,-0.0294189453125,-1.1929931640625,0.022900763358778626,-3.427480916030534,0.0,0.0023195743560791016
285,0.134521484375,-0.0311279296875,-1.1854248046875,0.0916030534351145,-3.4198473282442747,0.13740458015267176,0.002316713333129883
284,0.130126953125,-0.0274658203125,-1.1864013671875,0.07633587786259542,-3.33587786259542,-0.007633587786259542,0.0023179054260253906
285,0.1337890625,-0.0296630859375,-1.1910400390625,0.11450381679389313,-3.435114503816794,0.13740458015267176,0.0023174285888671875
284,0.135009765625,-0.0350341796875,-1.1822509765625,0.03816793893129771,-3.404580152671756,0.04580152671755725,0.0023179054260253906
284,0.13427734375,-0.0311279296875,-1.1922607421875,0.015267175572519083,-3.3893129770992365,0.16030534351145037,0.0024445056915283203
285,0.128173828125,-0.0267333984375,-1.1917724609375,0.03816793893129771,-3.4427480916030535,0.13740458015267176,0.002324819564819336
285,0.135498046875,-0.0264892578125,-1.1883544921875,0.0,-3.2900763358778624,0.17557251908396945,0.0023195743560791016
286,0.134765625,-0.0294189453125,-1.1988525390625,0.0916030534351145,-3.3740458015267176,-0.007633587786259542,0.002315998077392578
285,0.131591796875,-0.0216064453125,-1.1905517578125,-0.015267175572519083,-3.7557251908396947,0.09923664122137404,0.0023186206817626953
285,0.132568359375,-0.0281982421875,-1.1959228515625,-0.13740458015267176,-3.3587786259541983,0.007633587786259542,0.002317667007446289
285,0.135009765625,-0.0264892578125,-1.1922607421875,0.04580152671755725,-3.4427480916030535,0.0,0.0023183822631835938
284,0.1328125,-0.0311279296875,-1.1907958984375,0.007633587786259542,-3.49618320610687,0.24427480916030533,0.0023162364959716797
284,0.13232421875,-0.0306396484375,-1.1929931640625,0.03816793893129771,-3.4122137404580153,-0.030534351145038167,0.002493143081665039
284,0.13330078125,-0.0328369140625,-1.1927490234375,0.030534351145038167,-3.5801526717557253,0.06870229007633588,0.0023310184478759766
285,0.132080078125,-0.0250244140625,-1.1837158203125,0.0,-3.3587786259541983,0.26717557251908397,0.0023162364959716797
285,0.13427734375,-0.0323486328125,-1.1937255859375,-0.007633587786259542,-3.198473282442748,-0.08396946564885496,0.002317667007446289
284,0.1318359375,-0.0299072265625,-1.1898193359375,0.1297709923664122,-3.4580152671755724,-0.007633587786259542,0.0023174285888671875
284,0.13037109375,-0.0281982421875,-1.1907958984375,0.0,-3.4656488549618323,0.04580152671755725,0.0023183822631835938
283,0.1337890625,-0.0269775390625,-1.1883544921875,-0.030534351145038167,-3.366412213740458,-0.03816793893129771,0.002315998077392578
284,0.1328125,-0.0274658203125,-1.1959228515625,-0.05343511450381679,-3.3206106870229006,0.015267175572519083,0.0023174285888671875
283,0.128173828125,-0.0260009765625,-1.1954345703125,-0.03816793893129771,-3.480916030534351,0.16793893129770993,0.002317667007446289
283,0.130126953125,-0.0255126953125,-1.1912841796875,0.04580152671755725,-3.3053435114503817,0.07633587786259542,0.0023174285888671875
284,0.129638671875,-0.0284423828125,-1.1915283203125,0.08396946564885496,-3.3740458015267176,0.1297709923664122,0.0023179054260253906
284,0.129150390625,-0.0252685546875,-1.1883544921875,0.05343511450381679,-3.3969465648854964,0.0916030534351145,0.0023174285888671875
284,0.13330078125,-0.0296630859375,-1.1934814453125,-0.09923664122137404,-3.4198473282442747,0.12213740458015267,0.0023174285888671875
284,0.136474609375,-0.0303955078125,-1.1915283203125,0.015267175572519083,-3.404580152671756,-0.04580152671755725,0.002318143844604492
283,0.1396484375,-0.0325927734375,-1.1968994140625,0.007633587786259542,-3.6030534351145036,0.007633587786259542,0.0023164749145507812
283,0.1318359375,-0.0240478515625,-1.1998291015625,0.007633587786259542,-3.2595419847328246,0.030534351145038167,0.0023179054260253906
283,0.127685546875,-0.0277099609375,-1.1873779296875,0.16030534351145037,-3.3053435114503817,-0.05343511450381679,0.0023174285888671875
283,0.133544921875,-0.0313720703125,-1.1898193359375,0.04580152671755725,-3.3587786259541983,0.22137404580152673,0.0023190975189208984
283,0.135009765625,-0.0306396484375,-1.1866455078125,0.022900763358778626,-3.381679389312977,0.007633587786259542,0.002317190170288086
283,0.13134765625,-0.0286865234375,-1.1876220703125,0.13740458015267176,-3.1755725190839694,0.183206106870229,0.0023450851440429688
283,0.126220703125,-0.0321044921875,-1.1876220703125,0.09923664122137404,-3.4198473282442747,0.03816793893129771,0.002318859100341797
283,0.1337890625,-0.0279541015625,-1.1920166015625,0.22900763358778625,-3.3282442748091605,0.007633587786259542,0.002316713333129883
282,0.134033203125,-0.0367431640625,-1.1866455078125,0.007633587786259542,-3.33587786259542,0.08396946564885496,0.002317667007446289
282,0.132080078125,-0.0257568359375,-1.1907958984375,0.08396946564885496,-3.404580152671756,0.0916030534351145,0.0023174285888671875
283,0.136962890625,-0.0211181640625,-1.1878662109375,0.05343511450381679,-3.4656488549618323,0.007633587786259542,0.002317667007446289
283,0.1357421875,-0.0316162109375,-1.1976318359375,0.007633587786259542,-3.595419847328244,0.06870229007633588,0.0023186206817626953
282,0.131103515625,-0.0272216796875,-1.1890869140625,0.183206106870229,-3.312977099236641,0.11450381679389313,0.002316713333129883
282,0.13525390625,-0.0260009765625,-1.1927490234375,-0.1297709923664122,-3.3282442748091605,0.03816793893129771,0.0023293495178222656
283,0.127197265625,-0.0325927734375,-1.1868896484375,0.1297709923664122,-3.3282442748091605,0.0916030534351145,0.0023186206817626953
282,0.12744140625,-0.0303955078125,-1.1939697265625,0.03816793893129771,-3.3282442748091605,0.17557251908396945,0.002317190170288086
282,0.134521484375,-0.0299072265625,-1.1942138671875,-0.07633587786259542,-3.5114503816793894,0.08396946564885496,0.002317667007446289
282,0.13037109375,-0.0242919921875,-1.1895751953125,0.06870229007633588,-3.3587786259541983,0.15267175572519084,0.0023946762084960938
282,0.13818359375,-0.0281982421875,-1.1851806640625,-0.07633587786259542,-3.4198473282442747,0.05343511450381679,0.002320528030395508
282,0.131103515625,-0.0323486328125,-1.1866455078125,-0.015267175572519083,-3.450381679389313,0.030534351145038167,0.0023186206817626953
282,0.135498046875,-0.0294189453125,-1.1864013671875,-0.13740458015267176,-3.50381679389313,0.061068702290076333,0.002344846725463867
282,0.135498046875,-0.0306396484375,-1.1876220703125,0.15267175572519084,-3.3435114503816794,0.0,0.002321481704711914
282,0.126220703125,-0.0257568359375,-1.1912841796875,0.022900763358778626,-3.4580152671755724,0.08396946564885496,0.002321004867553711
282,0.135009765625,-0.0235595703125,-1.1866455078125,0.015267175572519083,-3.3587786259541983,0.07633587786259542,0.002319812774658203
282,0.13427734375,-0.0252685546875,-1.1983642578125,0.04580152671755725,-3.3435114503816794,0.007633587786259542,0.002315521240234375
281,0.136474609375,-0.0267333984375,-1.1934814453125,-0.030534351145038167,-3.549618320610687,0.030534351145038167,0.0023186206817626953
281,0.135009765625,-0.0294189453125,-1.1854248046875,0.030534351145038167,-3.404580152671756,0.030534351145038167,0.0023179054260253906
282,0.126953125,-0.0318603515625,-1.1878662109375,0.022900763358778626,-3.2900763358778624,0.0916030534351145,0.002317667007446289
282,0.13525390625,-0.0333251953125,-1.1917724609375,0.0,-3.351145038167939,-0.05343511450381679,0.0023169517517089844
281,0.13671875,-0.0279541015625,-1.1900634765625,0.08396946564885496,-3.3587786259541983,-0.05343511450381679,0.0023164749145507812
281,0.1357421875,-0.0250244140625,-1.1925048828125,-0.11450381679389313,-3.3435114503816794,0.015267175572519083,0.002318143844604492
282,0.129638671875,-0.0374755859375,-1.1651611328125,-5.511450381679389,-2.732824427480916,0.17557251908396945,0.0023195743560791016
282,0.146240234375,-0.0206298828125,-1.2281494140625,-5.854961832061068,-6.4961832061068705,-1.3435114503816794,0.0023174285888671875
282,0.134033203125,-0.0394287109375,-1.1829833984375,-7.740458015267175,-6.236641221374046,-1.1374045801526718,0.0023174285888671875
281,0.13330078125,-0.0347900390625,-1.1793212890625,-6.679389312977099,-5.526717557251908,-1.4351145038167938,0.0023179054260253906
281,0.13134765625,-0.0286865234375,-1.1893310546875,-6.221374045801527,-4.564885496183206,-1.6641221374045803,0.0023183822631835938
281,0.13818359375,-0.0228271484375,-1.1895751953125,-5.106870229007634,-4.488549618320611,-1.465648854961832,0.002316713333129883
281,0.12939453125,-0.0230712890625,-1.1949462890625,-3.7709923664122136,-3.9160305343511452,-1.4961832061068703,0.0026814937591552734
281,0.131591796875,-0.0267333984375,-1.1895751953125,-2.931297709923664,-2.969465648854962,-0.9923664122137404,0.002629518508911133
282,0.14111328125,-0.0216064453125,-1.1951904296875,-0.7404580152671756,-3.236641221374046,-0.7099236641221374,0.002588987350463867
281,0.13427734375,-0.0174560546875,-1.1983642578125,2.49618320610687,-2.33587786259542,0.4198473282442748,0.002508878707885742
281,0.130859375,-0.0220947265625,-1.1849365234375,3.946564885496183,-0.7709923664122137,1.1603053435114503,0.0023343563079833984
280,0.12841796875,-0.0303955078125,-1.1944580078125,4.99236641221374,-0.16793893129770993,1.2595419847328244,0.0023217201232910156
281,0.140625,-0.0274658203125,-1.2052001953125,7.152671755725191,-1.5190839694656488,1.3511450381679388,0.002321004867553711
280,0.13427734375,-0.0301513671875,-1.1795654296875,5.282442748091603,0.35877862595419846,1.5190839694656488,0.002320528030395508
280,0.12744140625,-0.0472412109375,-1.1517333984375,1.7709923664122138,-0.31297709923664124,1.5267175572519085,0.0023200511932373047
280,0.136474609375,-0.0321044921875,-1.2166748046875,-0.5801526717557252,-3.519083969465649,0.4122137404580153,0.002322673797607422
280,0.13916015625,-0.0289306640625,-1.1856689453125,-2.480916030534351,-4.221374045801527,-0.33587786259541985,0.0023193359375
281,0.132080078125,-0.0277099609375,-1.1912841796875,-3.633587786259542,-4.1679389312977095,-0.7938931297709924,0.002318143844604492
281,0.139404296875,-0.0279541015625,-1.1978759765625,-2.7251908396946565,-4.374045801526718,-0.648854961832061,0.0023186206817626953
280,0.125244140625,-0.0291748046875,-1.1988525390625,-1.5572519083969465,-3.66412213740458,-0.5190839694656488,0.0023190975189208984
280,0.1298828125,-0.0291748046875,-1.1844482421875,0.0916030534351145,-2.885496183206107,0.007633587786259542,0.0023179054260253906
280,0.128662109375,-0.0228271484375,-1.1920166015625,0.9923664122137404,-2.3587786259541983,0.46564885496183206,0.0023186206817626953
280,0.13427734375,-0.0257568359375,-1.1922607421875,1.534351145038168,-1.9694656488549618,0.3282442748091603,0.0023174285888671875
279,0.13330078125,-0.0264892578125,-1.1905517578125,1.5572519083969465,-2.50381679389313,0.3053435114503817,0.0023186206817626953
280,0.132080078125,-0.0252685546875,-1.1864013671875,1.1297709923664123,-2.5877862595419847,0.5877862595419847,0.002317190170288086
280,0.130615234375,-0.0335693359375,-1.1925048828125,0.7175572519083969,-2.801526717557252,0.10687022900763359,0.002318143844604492
281,0.1328125,-0.0269775390625,-1.1903076171875,0.6106870229007634,-2.9236641221374047,-0.061068702290076333,0.0023345947265625
280,0.1328125,-0.0301513671875,-1.1915283203125,0.13740458015267176,-3.0,0.1297709923664122,0.0023207664489746094
279,0.13037109375,-0.0269775390625,-1.1898193359375,-0.17557251908396945,-3.312977099236641,-0.16030534351145037,0.002321958541870117
279,0.124755859375,-0.0269775390625,-1.1859130859375,-0.3511450381679389,-3.1755725190839694,-0.061068702290076333,0.0023195743560791016
279,0.131591796875,-0.0325927734375,-1.1927490234375,-0.3893129770992366,-3.33587786259542,0.03816793893129771,0.002360105514526367
280,0.13427734375,-0.0264892578125,-1.2030029296875,-0.31297709923664124,-3.2977099236641223,-0.03816793893129771,0.0026226043701171875
279,0.134033203125,-0.0223388671875,-1.1883544921875,-0.549618320610687,-2.984732824427481,-0.007633587786259542,0.0023255348205566406
280,0.127685546875,-0.0262451171875,-1.1881103515625,-1.0305343511450382,-3.213740458015267,-0.13740458015267176,0.002320528030395508
280,0.138671875,-0.0257568359375,-1.2047119140625,-1.1374045801526718,-3.854961832061069,-0.16030534351145037,0.002321004867553711
280,0.133056640625,-0.0303955078125,-1.2059326171875,-0.6717557251908397,-3.885496183206107,-0.11450381679389313,0.002319812774658203
280,0.13916015625,-0.0247802734375,-1.1859130859375,-0.22900763358778625,-2.885496183206107,0.061068702290076333,0.0023193359375
279,0.131103515625,-0.0260009765625,-1.1864013671875,0.0,-2.8396946564885495,0.21374045801526717,0.0023190975189208984
279,0.1357421875,-0.0291748046875,-1.1885986328125,-0.16793893129770993,-3.1526717557251906,-0.015267175572519083,0.0023474693298339844
279,0.136962890625,-0.0301513671875,-1.1854248046875,-0.7557251908396947,-3.49618320610687,-0.183206106870229,0.0023186206817626953
279,0.13427734375,-0.0296630859375,-1.1900634765625,-0.9007633587786259,-3.854961832061069,-0.21374045801526717,0.002318859100341797
279,0.134521484375,-0.0311279296875,-1.1900634765625,-0.7175572519083969,-3.66412213740458,-0.3282442748091603,0.0023136138916015625
280,0.137939453125,-0.0303955078125,-1.1895751953125,-0.5572519083969466,-3.236641221374046,-0.0916030534351145,0.0023183822631835938
280,0.1328125,-0.0269775390625,-1.1878662109375,-0.5114503816793893,-3.404580152671756,-0.08396946564885496,0.002315998077392578
280,0.136962890625,-0.0264892578125,-1.1964111328125,-0.21374045801526717,-3.4122137404580153,-0.2824427480916031,0.002315044403076172
279,0.128662109375,-0.0257568359375,-1.1903076171875,0.2595419847328244,-3.3740458015267176,0.16793893129770993,0.002315044403076172
279,0.130859375,-0.0250244140625,-1.1888427734375,0.732824427480916,-2.984732824427481,0.2366412213740458,0.002312898635864258
278,0.133056640625,-0.0277099609375,-1.1903076171875,1.0687022900763359,-2.786259541984733,0.16030534351145037,0.002314329147338867
279,0.134521484375,-0.0277099609375,-1.1876220703125,1.0458015267175573,-2.4122137404580153,0.3511450381679389,0.0023136138916015625
279,0.1337890625,-0.0294189453125,-1.1876220703125,0.816793893129771,-3.1374045801526718,0.3053435114503817,0.0023202896118164062
279,0.1328125,-0.0264892578125,-1.1810302734375,0.2748091603053435,-3.1908396946564888,0.3816793893129771,0.0023195743560791016
279,0.1328125,-0.0335693359375,-1.1988525390625,0.05343511450381679,-3.366412213740458,0.10687022900763359,0.0023164749145507812
279,0.133056640625,-0.0333251953125,-1.1885986328125,-0.1297709923664122,-3.3969465648854964,-0.06870229007633588,0.0023179054260253906
279,0.135986328125,-0.0308837890625,-1.1856689453125,-0.09923664122137404,-3.16793893129771,0.1984732824427481,0.002321481704711914
277,0.135986328125,-0.0289306640625,-1.1920166015625,-0.06870229007633588,-3.4427480916030535,-0.022900763358778626,0.0023190975189208984
278,0.1279296875,-0.0284423828125,-1.1912841796875,-0.12213740458015267,-3.618320610687023,0.0,0.0023193359375
278,0.125244140625,-0.0328369140625,-1.1925048828125,0.15267175572519084,-3.145038167938931,0.16030534351145037,0.0023157596588134766
277,0.134521484375,-0.0281982421875,-1.1893310546875,0.2824427480916031,-3.381679389312977,0.31297709923664124,0.0023186206817626953
278,0.131103515625,-0.0289306640625,-1.1947021484375,0.4122137404580153,-3.0763358778625953,0.19083969465648856,0.0023174285888671875
279,0.1240234375,-0.0306396484375,-1.1915283203125,0.2824427480916031,-3.1374045801526718,0.1984732824427481,0.002318143844604492
279,0.136962890625,-0.0233154296875,-1.1966552734375,0.4580152671755725,-3.16793893129771,0.183206106870229,0.002317667007446289
278,0.137939453125,-0.0281982421875,-1.1942138671875,0.2900763358778626,-3.312977099236641,0.09923664122137404,0.002317667007446289
279,0.1279296875,-0.0252685546875,-1.1910400390625,0.32061068702290074,-3.2900763358778624,0.22137404580152673,0.002318143844604492
278,0.13916015625,-0.0281982421875,-1.1885986328125,0.4580152671755725,-3.114503816793893,0.11450381679389313,0.0023174285888671875
278,0.130615234375,-0.0323486328125,-1.1995849609375,0.366412213740458,-3.351145038167939,0.183206106870229,0.0023174285888671875
278,0.13232421875,-0.0238037109375,-1.1925048828125,0.24427480916030533,-3.3206106870229006,0.15267175572519084,0.0025811195373535156
278,0.135986328125,-0.0274658203125,-1.1885986328125,0.31297709923664124,-3.198473282442748,0.13740458015267176,0.0023212432861328125
278,0.129638671875,-0.0338134765625,-1.1851806640625,0.21374045801526717,-3.3206106870229006,0.06870229007633588,0.0023202896118164062
278,0.136474609375,-0.0242919921875,-1.1934814453125,0.31297709923664124,-3.282442748091603,0.0,0.0023179054260253906
279,0.129638671875,-0.0301513671875,-1.1988525390625,0.22137404580152673,-3.549618320610687,0.16793893129770993,0.002318143844604492
279,0.12890625,-0.0252685546875,-1.1922607421875,0.31297709923664124,-3.2977099236641223,0.13740458015267176,0.002316713333129883
278,0.138427734375,-0.0294189453125,-1.1864013671875,0.4351145038167939,-3.114503816793893,0.07633587786259542,0.0023360252380371094
278,0.132568359375,-0.0294189453125,-1.1942138671875,0.4122137404580153,-3.0916030534351147,0.3511450381679389,0.0024857521057128906
277,0.130615234375,-0.0267333984375,-1.1934814453125,0.3511450381679389,-3.2442748091603053,0.12213740458015267,0.0023565292358398438
278,0.1279296875,-0.0296630859375,-1.1888427734375,0.45038167938931295,-3.2977099236641223,0.19083969465648856,0.002322673797607422
278,0.133056640625,-0.0335693359375,-1.1895751953125,0.15267175572519084,-3.267175572519084,0.022900763358778626,0.0023174285888671875
278,0.134033203125,-0.0264892578125,-1.1927490234375,0.24427480916030533,-3.282442748091603,0.3282442748091603,0.0023193359375
279,0.13818359375,-0.0291748046875,-1.1981201171875,0.2595419847328244,-3.312977099236641,0.05343511450381679,0.002317667007446289
279,0.13232421875,-0.0279541015625,-1.1944580078125,0.26717557251908397,-3.1297709923664123,0.19083969465648856,0.002317667007446289
277,0.129150390625,-0.0250244140625,-1.1903076171875,0.1984732824427481,-3.099236641221374,0.1984732824427481,0.0023186206817626953
278,0.1396484375,-0.0316162109375,-1.1956787109375,0.2748091603053435,-3.2519083969465647,0.22900763358778625,0.0023174285888671875
278,0.1396484375,-0.0235595703125,-1.1907958984375,0.13740458015267176,-3.2213740458015265,0.1984732824427481,0.002320528030395508
278,0.137451171875,-0.0279541015625,-1.1934814453125,0.12213740458015267,-3.3282442748091605,0.04580152671755725,0.002317667007446289
278,0.132080078125,-0.0313720703125,-1.1912841796875,0.1450381679389313,-3.2061068702290076,0.22900763358778625,0.002317667007446289
278,0.14013671875,-0.0208740234375,-1.1893310546875,0.1297709923664122,-3.198473282442748,0.15267175572519084,0.002318143844604492
279,0.129150390625,-0.0294189453125,-1.1954345703125,0.08396946564885496,-3.5419847328244276,0.07633587786259542,0.002318143844604492
279,0.13623046875,-0.0252685546875,-1.1917724609375,0.015267175572519083,-3.312977099236641,0.04580152671755725,0.0023183822631835938
279,0.12939453125,-0.0281982421875,-1.1824951171875,0.16793893129770993,-3.2442748091603053,0.1297709923664122,0.002317190170288086
278,0.1357421875,-0.0294189453125,-1.1868896484375,0.25190839694656486,-3.1755725190839694,0.11450381679389313,0.0023179054260253906
278,0.1376953125,-0.0289306640625,-1.1929931640625,0.08396946564885496,-3.351145038167939,0.09923664122137404,0.002318143844604492
279,0.13671875,-0.0269775390625,-1.1861572265625,0.0916030534351145,-3.435114503816794,0.29770992366412213,0.0023169517517089844
278,0.131103515625,-0.0301513671875,-1.1888427734375,0.13740458015267176,-3.381679389312977,0.17557251908396945,0.002318859100341797
279,0.13134765625,-0.0338134765625,-1.1876220703125,0.21374045801526717,-3.4198473282442747,0.05343511450381679,0.002316713333129883
279,0.13671875,-0.0274658203125,-1.1917724609375,0.015267175572519083,-3.312977099236641,0.030534351145038167,0.002317667007446289
279,0.133544921875,-0.0303955078125,-1.2005615234375,0.06870229007633588,-3.1908396946564888,0.07633587786259542,0.0023162364959716797
279,0.134765625,-0.0318603515625,-1.1944580078125,0.030534351145038167,-3.3893129770992365,0.11450381679389313,0.0023179054260253906
278,0.13427734375,-0.0289306640625,-1.1900634765625,0.11450381679389313,-3.381679389312977,0.21374045801526717,0.002317190170288086
278,0.135009765625,-0.0279541015625,-1.1893310546875,0.061068702290076333,-3.435114503816794,0.022900763358778626,0.0023179054260253906
278,0.138427734375,-0.0294189453125,-1.1859130859375,-0.015267175572519083,-3.381679389312977,0.13740458015267176,0.0023183822631835938
279,0.13720703125,-0.0245361328125,-1.1937255859375,0.21374045801526717,-3.5114503816793894,0.20610687022900764,0.002317190170288086
278,0.131103515625,-0.0274658203125,-1.1851806640625,-0.061068702290076333,-3.366412213740458,0.015267175572519083,0.002317190170288086
280,0.13623046875,-0.0299072265625,-1.1915283203125,0.07633587786259542,-3.5572519083969465,0.061068702290076333,0.002317190170288086
279,0.1357421875,-0.0264892578125,-1.1849365234375,0.0,-3.404580152671756,0.0916030534351145,0.002317190170288086
279,0.1318359375,-0.0279541015625,-1.1890869140625,-0.05343511450381679,-3.3435114503816794,0.05343511450381679,0.0023162364959716797
280,0.13720703125,-0.0269775390625,-1.1861572265625,0.0916030534351145,-3.427480916030534,0.007633587786259542,0.0023195743560791016
279,0.140869140625,-0.0279541015625,-1.1846923828125,0.015267175572519083,-3.3206106870229006,0.15267175572519084,0.002318859100341797
279,0.134765625,-0.0296630859375,-1.2000732421875,0.0916030534351145,-3.549618320610687,0.022900763358778626,0.0023169517517089844
278,0.130859375,-0.0296630859375,-1.1922607421875,0.04580152671755725,-3.4732824427480917,-0.015267175572519083,0.0023174285888671875
278,0.135986328125,-0.0281982421875,-1.1939697265625,-0.08396946564885496,-3.5419847328244276,0.26717557251908397,0.0023174285888671875
279,0.13134765625,-0.0274658203125,-1.1917724609375,-0.007633587786259542,-3.351145038167939,0.0,0.0023145675659179688
279,0.129638671875,-0.0255126953125,-1.1927490234375,0.1297709923664122,-3.4122137404580153,0.0,0.0023140907287597656
279,0.13720703125,-0.0260009765625,-1.1856689453125,-0.10687022900763359,-3.3053435114503817,0.06870229007633588,0.002316713333129883
279,0.1328125,-0.0267333984375,-1.1966552734375,0.06870229007633588,-3.4198473282442747,0.1450381679389313,0.0023331642150878906
279,0.134521484375,-0.0286865234375,-1.1939697265625,0.05343511450381679,-3.4580152671755724,0.022900763358778626,0.0023179054260253906
279,0.133056640625,-0.0218505859375,-1.1888427734375,-0.12213740458015267,-3.366412213740458,-0.007633587786259542,0.0023186206817626953
279,0.1357421875,-0.0274658203125,-1.1925048828125,0.0,-3.480916030534351,-0.04580152671755725,0.0023183822631835938
278,0.138916015625,-0.0294189453125,-1.1925048828125,-0.11450381679389313,-3.4122137404580153,0.061068702290076333,0.0023179054260253906
279,0.140380859375,-0.0260009765625,-1.1864013671875,-0.03816793893129771,-3.4885496183206106,0.11450381679389313,0.002319812774658203
279,0.13427734375,-0.0274658203125,-1.1873779296875,0.030534351145038167,-3.1755725190839694,0.022900763358778626,0.0023174285888671875
280,0.13232421875,-0.0323486328125,-1.1903076171875,0.07633587786259542,-3.4580152671755724,-0.015267175572519083,0.0023179054260253906
279,0.139404296875,-0.0289306640625,-1.1966552734375,0.08396946564885496,-3.3282442748091605,0.1450381679389313,0.0023183822631835938
279,0.136474609375,-0.0325927734375,-1.1932373046875,0.007633587786259542,-3.404580152671756,0.0916030534351145,0.002318143844604492
279,0.134765625,-0.0264892578125,-1.1854248046875,-0.0916030534351145,-3.351145038167939,0.07633587786259542,0.002317667007446289
279,0.1376953125,-0.0289306640625,-1.1917724609375,0.061068702290076333,-3.633587786259542,0.007633587786259542,0.0023174285888671875
279,0.1328125,-0.0316162109375,-1.1964111328125,-0.11450381679389313,-3.381679389312977,-0.007633587786259542,0.0023186206817626953
278,0.130126953125,-0.0316162109375,-1.1846923828125,0.007633587786259542,-3.480916030534351,0.0,0.002317667007446289
279,0.12841796875,-0.0250244140625,-1.1859130859375,0.05343511450381679,-3.3740458015267176,0.061068702290076333,0.0023162364959716797
279,0.13427734375,-0.0269775390625,-1.1942138671875,-0.04580152671755725,-3.5572519083969465,0.07633587786259542,0.002318143844604492
280,0.138671875,-0.0228271484375,-1.1832275390625,-0.06870229007633588,-3.2595419847328246,-0.04580152671755725,0.0023179054260253906
280,0.136962890625,-0.0269775390625,-1.1895751953125,0.0,-3.6259541984732824,0.15267175572519084,0.002318143844604492
279,0.137939453125,-0.0296630859375,-1.1915283203125,0.0,-3.1603053435114505,0.05343511450381679,0.002315044403076172
279,0.137939453125,-0.0284423828125,-1.1864013671875,0.007633587786259542,-3.4656488549618323,0.030534351145038167,0.002315998077392578
279,0.138671875,-0.0360107421875,-1.1864013671875,-0.007633587786259542,-3.33587786259542,0.04580152671755725,0.002317667007446289
279,0.1328125,-0.0301513671875,-1.1968994140625,-0.07633587786259542,-3.2595419847328246,0.11450381679389313,0.002317190170288086
279,0.136962890625,-0.0321044921875,-1.1888427734375,-0.04580152671755725,-3.4198473282442747,0.20610687022900764,0.002440214157104492
278,0.131103515625,-0.0272216796875,-1.1903076171875,-0.015267175572519083,-3.4198473282442747,0.0,0.002328157424926758
279,0.130126953125,-0.0303955078125,-1.1910400390625,-0.06870229007633588,-3.450381679389313,-0.061068702290076333,0.0023190975189208984
279,0.140625,-0.0257568359375,-1.1981201171875,-0.0916030534351145,-3.427480916030534,0.0,0.0023190975189208984
280,0.131103515625,-0.0330810546875,-1.1959228515625,-0.030534351145038167,-3.480916030534351,-0.07633587786259542,0.002316713333129883
279,0.137939453125,-0.0296630859375,-1.1844482421875,-0.16793893129770993,-3.4732824427480917,-0.03816793893129771,0.0023183822631835938
278,0.1337890625,-0.0296630859375,-1.1988525390625,-0.1297709923664122,-3.618320610687023,0.03816793893129771,0.0023195743560791016
279,0.12939453125,-0.0308837890625,-1.1907958984375,-0.04580152671755725,-3.427480916030534,0.06870229007633588,0.0023183822631835938
279,0.137939453125,-0.0279541015625,-1.1925048828125,-0.17557251908396945,-3.4427480916030535,0.05343511450381679,0.002317667007446289
279,0.135986328125,-0.0289306640625,-1.1944580078125,-0.03816793893129771,-3.3435114503816794,-0.06870229007633588,0.002318143844604492
278,0.13427734375,-0.0289306640625,-1.1859130859375,-0.07633587786259542,-3.4885496183206106,0.19083969465648856,0.0023186206817626953
279,0.1328125,-0.0262451171875,-1.1937255859375,0.0,-3.2061068702290076,0.030534351145038167,0.0023195743560791016
279,0.139404296875,-0.0313720703125,-1.1971435546875,0.007633587786259542,-3.4656488549618323,-0.022900763358778626,0.0023162364959716797
279,0.139404296875,-0.0296630859375,-1.1927490234375,-0.1984732824427481,-3.3206106870229006,0.061068702290076333,0.002318859100341797
279,0.1337890625,-0.0382080078125,-1.1942138671875,-0.08396946564885496,-3.5343511450381677,0.030534351145038167,0.0023190975189208984
278,0.135986328125,-0.0277099609375,-1.1939697265625,-0.03816793893129771,-3.50381679389313,0.06870229007633588,0.002317667007446289
278,0.1416015625,-0.0284423828125,-1.1864013671875,-0.05343511450381679,-3.366412213740458,0.1984732824427481,0.002316713333129883
278,0.135009765625,-0.0330810546875,-1.1956787109375,-0.17557251908396945,-3.4656488549618323,0.03816793893129771,0.0023131370544433594
278,0.1376953125,-0.0262451171875,-1.1881103515625,0.022900763358778626,-3.4732824427480917,0.015267175572519083,0.0023856163024902344
279,0.14111328125,-0.0274658203125,-1.1949462890625,-0.022900763358778626,-3.450381679389313,0.22137404580152673,0.0023238658905029297
279,0.13671875,-0.0284423828125,-1.1942138671875,-0.061068702290076333,-3.6412213740458017,0.19083969465648856,0.0023179054260253906
279,0.140380859375,-0.0228271484375,-1.1907958984375,0.09923664122137404,-3.4656488549618323,-0.030534351145038167,0.002318859100341797
279,0.130126953125,-0.0208740234375,-1.1915283203125,0.2366412213740458,-3.2519083969465647,0.061068702290076333,0.0023179054260253906
278,0.132080078125,-0.0281982421875,-1.1990966796875,0.0,-3.5114503816793894,0.183206106870229,0.002342700958251953
279,0.139404296875,-0.0274658203125,-1.1981201171875,0.061068702290076333,-3.2900763358778624,0.20610687022900764,0.0023174285888671875
279,0.138671875,-0.0255126953125,-1.1907958984375,0.1297709923664122,-3.4198473282442747,-0.07633587786259542,0.0023200511932373047
279,0.13818359375,-0.0316162109375,-1.1885986328125,0.25190839694656486,-3.381679389312977,0.061068702290076333,0.002318859100341797
278,0.14208984375,-0.0301513671875,-1.2037353515625,0.3893129770992366,-3.3893129770992365,0.1297709923664122,0.002312898635864258
279,0.132568359375,-0.0333251953125,-1.1680908203125,-0.22137404580152673,-3.1068702290076335,0.08396946564885496,0.002316713333129883
279,0.136474609375,-0.0242919921875,-1.2047119140625,0.3282442748091603,-3.6030534351145036,0.0,0.002317190170288086
279,0.1298828125,-0.0340576171875,-1.1993408203125,-0.0916030534351145,-3.122137404580153,0.05343511450381679,0.002315044403076172
278,0.130126953125,-0.0294189453125,-1.1790771484375,0.8473282442748091,-3.282442748091603,0.03816793893129771,0.0023174285888671875
279,0.13232421875,-0.0299072265625,-1.1942138671875,-0.022900763358778626,-3.2442748091603053,0.15267175572519084,0.0023152828216552734
278,0.136962890625,-0.0289306640625,-1.1915283203125,0.46564885496183206,-3.5419847328244276,0.061068702290076333,0.0023174285888671875
279,0.13427734375,-0.0301513671875,-1.2012939453125,-0.13740458015267176,-3.633587786259542,0.05343511450381679,0.002310514450073242
278,0.1279296875,-0.0291748046875,-1.1937255859375,0.22137404580152673,-3.633587786259542,0.04580152671755725,0.0023293495178222656
278,0.140380859375,-0.0306396484375,-1.1942138671875,0.15267175572519084,-3.236641221374046,0.09923664122137404,0.0023169517517089844
279,0.13330078125,-0.0264892578125,-1.1922607421875,0.366412213740458,-3.198473282442748,-0.007633587786259542,0.002316713333129883
279,0.131591796875,-0.0306396484375,-1.1893310546875,0.24427480916030533,-3.381679389312977,0.12213740458015267,0.0023183822631835938
279,0.135009765625,-0.0281982421875,-1.2064208984375,0.030534351145038167,-3.4580152671755724,0.12213740458015267,0.002315521240234375
278,0.1357421875,-0.0291748046875,-1.1978759765625,0.19083969465648856,-3.236641221374046,0.16030534351145037,0.0023157596588134766
