emg_0,emg_1,emg_2,emg_3,emg_4,acc_x,acc_y,acc_z,gyro_x,gyro_y,gyro_z,dt
0.0,0.0,0.0,0.164595365524292
0.0,0.0,0.0,0.0009965896606445312
0.0,0.0,0.0,0.0009922981262207031
0.0,0.0,0.0,0.0009708404541015625
0.0,0.0,0.0,0.0009653568267822266
0.0,0.0,0.0,0.0009031295776367188
0.0,0.0,0.0,0.0008957386016845703
-0.0758056640625,-0.1639404296875,0.83203125,0.0009009838104248047
-0.0738525390625,-0.1617431640625,0.8408203125,0.0009074211120605469
-0.0743408203125,-0.1561279296875,0.83544921875,0.0009028911590576172
-0.0701904296875,-0.1558837890625,0.827880859375,0.0009326934814453125
-0.0667724609375,-0.1602783203125,0.825439453125,0.0009143352508544922
-0.0701904296875,-0.1649169921875,0.823974609375,0.0009024143218994141
-0.0675048828125,-0.1649169921875,0.829833984375,0.0009007453918457031
-0.0684814453125,-0.1627197265625,0.83154296875,0.0009012222290039062
-0.0762939453125,-0.1656494140625,0.8349609375,0.0009071826934814453
-0.0762939453125,-0.1656494140625,0.8349609375,0.0009732246398925781
-0.0733642578125,-0.1634521484375,0.8349609375,0.0009720325469970703
-0.0687255859375,-0.1580810546875,0.835205078125,0.0010077953338623047
-0.0660400390625,-0.1578369140625,0.822509765625,0.0010285377502441406
-0.0616455078125,-0.1656494140625,0.826416015625,0.0009822845458984375
-0.0616455078125,-0.1656494140625,0.826416015625,0.0009551048278808594
-0.0653076171875,-0.1634521484375,0.82763671875,0.0009596347808837891
-0.0709228515625,-0.1573486328125,0.825927734375,0.0009584426879882812
-0.0675048828125,-0.1566162109375,0.82568359375,0.0009834766387939453
-0.0653076171875,-0.1593017578125,0.83642578125,0.0011065006256103516
-0.0628662109375,-0.1610107421875,0.835693359375,0.0009961128234863281
-0.0750732421875,-0.1624755859375,0.83251953125,0.0010628700256347656
-0.0760498046875,-0.1644287109375,0.83154296875,0.0009684562683105469
-0.0760498046875,-0.1644287109375,0.83154296875,0.0009503364562988281
-0.0679931640625,-0.1627197265625,0.82568359375,0.0009930133819580078
-0.0711669921875,-0.1656494140625,0.829345703125,0.0010402202606201172
-0.0670166015625,-0.1666259765625,0.834716796875,0.0010204315185546875
-0.0699462890625,-0.1610107421875,0.833984375,0.000993490219116211
-0.0709228515625,-0.1600341796875,0.829345703125,0.0010285377502441406
-0.0672607421875,-0.1661376953125,0.834716796875,0.0009713172912597656
-0.0645751953125,-0.1602783203125,0.828857421875,0.001108407974243164
-0.0699462890625,-0.1593017578125,0.8271484375,0.0010595321655273438
-0.0704345703125,-0.1612548828125,0.825927734375,0.0009279251098632812
-0.0682373046875,-0.1639404296875,0.83544921875,0.0009179115295410156
-0.0657958984375,-0.1658935546875,0.836669921875,0.0009088516235351562
-0.0706787109375,-0.1575927734375,0.826171875,0.0009033679962158203
-0.0706787109375,-0.1575927734375,0.826171875,0.0009028911590576172
-0.0653076171875,-0.1607666015625,0.833740234375,0.0009007453918457031
-0.0660400390625,-0.1678466796875,0.847900390625,0.0009026527404785156
-0.0701904296875,-0.1617431640625,0.833740234375,0.0009012222290039062
-0.0718994140625,-0.1624755859375,0.834716796875,0.0009002685546875
-0.0684814453125,-0.1639404296875,0.834228515625,0.0009126663208007812
-0.0675048828125,-0.1617431640625,0.8388671875,0.0009374618530273438
-0.0706787109375,-0.1600341796875,0.83349609375,0.0009064674377441406
-0.0672607421875,-0.1612548828125,0.83251953125,0.0009458065032958984
-0.0677490234375,-0.1593017578125,0.8349609375,0.0010693073272705078
-0.0675048828125,-0.1600341796875,0.837158203125,0.0010313987731933594
-0.0689697265625,-0.1573486328125,0.82763671875,0.0009503364562988281
-0.0694580078125,-0.1556396484375,0.83203125,0.00090789794921875
-0.0692138671875,-0.1573486328125,0.83984375,0.0009019374847412109
-0.0655517578125,-0.1614990234375,0.827392578125,0.0009031295776367188
-0.0655517578125,-0.1614990234375,0.827392578125,0.0009014606475830078
-0.0677490234375,-0.1585693359375,0.824462890625,0.0009055137634277344
-0.0635986328125,-0.1605224609375,0.829833984375,0.0008988380432128906
-0.0660400390625,-0.1619873046875,0.836181640625,0.0009009838104248047
-0.0660400390625,-0.1607666015625,0.82421875,0.0009021759033203125
-0.0648193359375,-0.1641845703125,0.8251953125,0.0009002685546875
-0.0616455078125,-0.1614990234375,0.832763671875,0.0008995532989501953
-0.0631103515625,-0.1634521484375,0.8330078125,0.0009005069732666016
-0.0643310546875,-0.1600341796875,0.8330078125,0.0009095668792724609
-0.0711669921875,-0.1627197265625,0.8232421875,0.0009217262268066406
-0.0711669921875,-0.1627197265625,0.8232421875,0.0009074211120605469
-0.0706787109375,-0.1627197265625,0.8369140625,0.0009016990661621094
-0.0672607421875,-0.1588134765625,0.8349609375,0.0009021759033203125
-0.0689697265625,-0.1590576171875,0.825927734375,0.0009047985076904297
-0.0645751953125,-0.1634521484375,0.829833984375,0.0008983612060546875
-0.0657958984375,-0.1605224609375,0.839599609375,0.0009014606475830078
-0.0736083984375,-0.1614990234375,0.838623046875,0.0009014606475830078
-0.0655517578125,-0.1563720703125,0.82373046875,0.0009021759033203125
-0.0589599609375,-0.1563720703125,0.828369140625,0.0009009838104248047
-0.0650634765625,-0.1619873046875,0.829833984375,0.0009024143218994141
-0.0689697265625,-0.1622314453125,0.839111328125,0.0009007453918457031
-0.0689697265625,-0.1622314453125,0.839111328125,0.0009016990661621094
-0.0679931640625,-0.1605224609375,0.8271484375,0.0009002685546875
-0.0643310546875,-0.1617431640625,0.818359375,0.0009002685546875
-0.0643310546875,-0.1632080078125,0.83544921875,0.0009009838104248047
-0.0657958984375,-0.1627197265625,0.841796875,0.0009012222290039062
-0.0701904296875,-0.1580810546875,0.8349609375,0.0009021759033203125
-0.0777587890625,-0.1602783203125,0.821044921875,0.0009012222290039062
-0.0772705078125,-0.1651611328125,0.832275390625,0.0009012222290039062
-0.0743408203125,-0.1651611328125,0.837646484375,0.0009009838104248047
-0.0689697265625,-0.1580810546875,0.83447265625,0.0009014606475830078
-0.0689697265625,-0.1580810546875,0.83447265625,0.0009009838104248047
-0.0609130859375,-0.1617431640625,0.828369140625,0.0009009838104248047
-0.0655517578125,-0.1654052734375,0.837158203125,0.0009007453918457031
-0.0697021484375,-0.1654052734375,0.83642578125,0.0009009838104248047
-0.0677490234375,-0.1610107421875,0.833740234375,0.0009233951568603516
-0.0733642578125,-0.1602783203125,0.829833984375,0.0009014606475830078
-0.0706787109375,-0.1624755859375,0.8330078125,0.0009016990661621094
-0.0684814453125,-0.1668701171875,0.84326171875,0.0009009838104248047
-0.0682373046875,-0.1632080078125,0.830322265625,0.0009019374847412109
-0.0711669921875,-0.1619873046875,0.82763671875,0.0009002685546875
-0.0711669921875,-0.1619873046875,0.82763671875,0.0009007453918457031
-0.0660400390625,-0.1597900390625,0.82861328125,0.0009009838104248047
-0.0697021484375,-0.1595458984375,0.836669921875,0.0009183883666992188
-0.0689697265625,-0.1605224609375,0.832763671875,0.0009019374847412109
-0.0697021484375,-0.1595458984375,0.831787109375,0.0009012222290039062
-0.0672607421875,-0.1619873046875,0.8388671875,0.0009012222290039062
-0.0635986328125,-0.1610107421875,0.830810546875,0.0009005069732666016
-0.0638427734375,-0.1593017578125,0.837890625,0.0009019374847412109
-0.0677490234375,-0.1566162109375,0.831787109375,0.0009000301361083984
-0.0697021484375,-0.1566162109375,0.834228515625,0.0009009838104248047
-0.0697021484375,-0.1612548828125,0.83154296875,0.0009016990661621094
-0.0697021484375,-0.1612548828125,0.83154296875,0.0009016990661621094
-0.0689697265625,-0.1627197265625,0.835205078125,0.0009002685546875
-0.0662841796875,-0.1602783203125,0.833740234375,0.0009012222290039062
-0.0706787109375,-0.1624755859375,0.83154296875,0.0009012222290039062
-0.0716552734375,-0.1590576171875,0.833740234375,0.0009007453918457031
-0.0679931640625,-0.1583251953125,0.834228515625,0.0009019374847412109
-0.0711669921875,-0.1531982421875,0.82958984375,0.0009005069732666016
-0.0689697265625,-0.1595458984375,0.829345703125,0.0009005069732666016
-0.0721435546875,-0.1583251953125,0.831298828125,0.0009007453918457031
-0.0721435546875,-0.1593017578125,0.829833984375,0.0009016990661621094
-0.0679931640625,-0.1571044921875,0.826904296875,0.0010836124420166016
-0.0672607421875,-0.1556396484375,0.830078125,0.0009105205535888672
-0.0672607421875,-0.1556396484375,0.830078125,0.0009033679962158203
-0.0704345703125,-0.1602783203125,0.841064453125,0.0009028911590576172
-0.0697021484375,-0.1583251953125,0.84130859375,0.0009016990661621094
-0.0714111328125,-0.1624755859375,0.8369140625,0.0009021759033203125
-0.0699462890625,-0.1654052734375,0.839111328125,0.0009014606475830078
-0.0711669921875,-0.1639404296875,0.8330078125,0.0009007453918457031
-0.0716552734375,-0.1610107421875,0.8359375,0.0009016990661621094
-0.0689697265625,-0.1563720703125,0.824951171875,0.0009005069732666016
-0.0748291015625,-0.1583251953125,0.824951171875,0.0009012222290039062
-0.0740966796875,-0.1580810546875,0.829345703125,0.0009007453918457031
-0.0740966796875,-0.1580810546875,0.829345703125,0.0009021759033203125
-0.0726318359375,-0.1514892578125,0.836669921875,0.0009000301361083984
-0.0679931640625,-0.1563720703125,0.835693359375,0.0009009838104248047
-0.0689697265625,-0.1583251953125,0.8369140625,0.0009012222290039062
-0.0670166015625,-0.1544189453125,0.825439453125,0.0009012222290039062
-0.0653076171875,-0.1619873046875,0.828125,0.0009019374847412109
-0.0694580078125,-0.1641845703125,0.8359375,0.0009005069732666016
-0.0694580078125,-0.1553955078125,0.829345703125,0.0009009838104248047
-0.0665283203125,-0.1563720703125,0.82958984375,0.0009005069732666016
-0.0689697265625,-0.1571044921875,0.8310546875,0.0009012222290039062
-0.0697021484375,-0.1546630859375,0.829345703125,0.0009002685546875
-0.0697021484375,-0.1546630859375,0.829345703125,0.0009005069732666016
-0.0728759765625,-0.1573486328125,0.8291015625,0.0009012222290039062
-0.0738525390625,-0.1636962890625,0.8359375,0.0009205341339111328
-0.0701904296875,-0.1614990234375,0.83544921875,0.0009014606475830078
-0.0682373046875,-0.1556396484375,0.831787109375,0.0009016990661621094
-0.0736083984375,-0.1571044921875,0.839111328125,0.0009007453918457031
-0.0716552734375,-0.1568603515625,0.829345703125,0.0009007453918457031
-0.0721435546875,-0.1568603515625,0.830810546875,0.0009021759033203125
-0.0714111328125,-0.1578369140625,0.827880859375,0.0009009838104248047
-0.0714111328125,-0.1588134765625,0.8291015625,0.0009007453918457031
-0.0714111328125,-0.1588134765625,0.8291015625,0.0009012222290039062
-0.0679931640625,-0.1632080078125,0.836181640625,0.0009014606475830078
-0.0697021484375,-0.1619873046875,0.8359375,0.0009000301361083984
-0.0677490234375,-0.1639404296875,0.841552734375,0.0009005069732666016
-0.0753173828125,-0.1593017578125,0.824462890625,0.0009005069732666016
-0.0714111328125,-0.1619873046875,0.8271484375,0.0009009838104248047
-0.0731201171875,-0.1571044921875,0.829345703125,0.0009014606475830078
-0.0709228515625,-0.1578369140625,0.837646484375,0.0009007453918457031
-0.0736083984375,-0.1632080078125,0.83349609375,0.0009014606475830078
-0.0784912109375,-0.1627197265625,0.82861328125,0.0009002685546875
-0.0784912109375,-0.1627197265625,0.82861328125,0.0009012222290039062
-0.0706787109375,-0.1614990234375,0.82958984375,0.0008997917175292969
-0.0709228515625,-0.1593017578125,0.828369140625,0.0009007453918457031
-0.0718994140625,-0.1585693359375,0.82177734375,0.0009009838104248047
-0.0699462890625,-0.1593017578125,0.832275390625,0.0009007453918457031
-0.0689697265625,-0.1563720703125,0.8388671875,0.0009012222290039062
-0.0728759765625,-0.1593017578125,0.839111328125,0.0009005069732666016
-0.0743408203125,-0.1588134765625,0.826171875,0.0009002685546875
-0.0667724609375,-0.1607666015625,0.82373046875,0.0009002685546875
-0.0687255859375,-0.1566162109375,0.820556640625,0.0009002685546875
-0.0687255859375,-0.1566162109375,0.820556640625,0.0009007453918457031
-0.0711669921875,-0.1602783203125,0.834228515625,0.0009009838104248047
-0.0701904296875,-0.1553955078125,0.828125,0.0009009838104248047
-0.0723876953125,-0.1583251953125,0.832763671875,0.0009014606475830078
-0.0711669921875,-0.1622314453125,0.8330078125,0.0009000301361083984
-0.0709228515625,-0.1649169921875,0.83935546875,0.0009007453918457031
-0.0740966796875,-0.1641845703125,0.825927734375,0.0009007453918457031
-0.0726318359375,-0.1673583984375,0.832275390625,0.0009005069732666016
-0.0714111328125,-0.1619873046875,0.832275390625,0.0009016990661621094
-0.0684814453125,-0.1575927734375,0.83447265625,0.0009002685546875
-0.0684814453125,-0.1597900390625,0.82470703125,0.0009002685546875
-0.0684814453125,-0.1597900390625,0.82470703125,0.0009000301361083984
-0.0635986328125,-0.1585693359375,0.83154296875,0.0009016990661621094
-0.0643310546875,-0.1571044921875,0.825927734375,0.0009005069732666016
-0.0677490234375,-0.1568603515625,0.827880859375,0.0009007453918457031
-0.0684814453125,-0.1614990234375,0.836669921875,0.0009009838104248047
-0.0679931640625,-0.1649169921875,0.829833984375,0.0009005069732666016
-0.0662841796875,-0.1649169921875,0.837890625,0.0009016990661621094
-0.0645751953125,-0.1602783203125,0.837158203125,0.0008995532989501953
-0.0672607421875,-0.1556396484375,0.822021484375,0.0009002685546875
-0.0660400390625,-0.1619873046875,0.832763671875,0.0009005069732666016
-0.0660400390625,-0.1619873046875,0.832763671875,0.0009016990661621094
-0.0662841796875,-0.1588134765625,0.824951171875,0.0009002685546875
-0.0677490234375,-0.1639404296875,0.826416015625,0.0009007453918457031
-0.0723876953125,-0.1641845703125,0.821533203125,0.0009012222290039062
-0.0694580078125,-0.1639404296875,0.8310546875,0.0009005069732666016
-0.0716552734375,-0.1585693359375,0.825927734375,0.0009009838104248047
-0.0721435546875,-0.1644287109375,0.834716796875,0.0009002685546875
-0.0665283203125,-0.1644287109375,0.838623046875,0.0009002685546875
-0.0650634765625,-0.1629638671875,0.833740234375,0.0009005069732666016
-0.0682373046875,-0.1610107421875,0.826416015625,0.0009012222290039062
-0.0682373046875,-0.1610107421875,0.826416015625,0.0009002685546875
-0.0709228515625,-0.1549072265625,0.827392578125,0.0009005069732666016
-0.0733642578125,-0.1573486328125,0.824462890625,0.0009002685546875
-0.0714111328125,-0.1597900390625,0.831298828125,0.0009009838104248047
-0.0638427734375,-0.1605224609375,0.83544921875,0.0009005069732666016
-0.0616455078125,-0.1632080078125,0.838623046875,0.0009005069732666016
-0.0638427734375,-0.1624755859375,0.830810546875,0.0009007453918457031
-0.0689697265625,-0.1614990234375,0.828857421875,0.0009009838104248047
-0.0657958984375,-0.1617431640625,0.83056640625,0.0009012222290039062
-0.0684814453125,-0.1578369140625,0.834228515625,0.0009009838104248047
-0.0684814453125,-0.1578369140625,0.834228515625,0.0009007453918457031
-0.0638427734375,-0.1627197265625,0.83740234375,0.0009005069732666016
-0.0643310546875,-0.1595458984375,0.843505859375,0.0009014606475830078
-0.0621337890625,-0.1632080078125,0.834228515625,0.0009000301361083984
-0.0618896484375,-0.1619873046875,0.814453125,0.0009007453918457031
-0.0638427734375,-0.1624755859375,0.82275390625,0.0009012222290039062
-0.0682373046875,-0.1619873046875,0.831298828125,0.0009005069732666016
-0.0736083984375,-0.1617431640625,0.834716796875,0.0009012222290039062
-0.0626220703125,-0.1649169921875,0.826904296875,0.0009000301361083984
-0.0662841796875,-0.1639404296875,0.831298828125,0.0009007453918457031
-0.0662841796875,-0.1639404296875,0.831298828125,0.0009012222290039062
-0.0657958984375,-0.1573486328125,0.838623046875,0.0009014606475830078
-0.0682373046875,-0.1602783203125,0.8408203125,0.0009007453918457031
-0.0601806640625,-0.1575927734375,0.834716796875,0.0009005069732666016
-0.0670166015625,-0.1563720703125,0.83837890625,0.0009000301361083984
-0.0653076171875,-0.1585693359375,0.828369140625,0.0009009838104248047
-0.0655517578125,-0.1661376953125,0.83056640625,0.0009136199951171875
-0.0660400390625,-0.1629638671875,0.82861328125,0.0009012222290039062
-0.0682373046875,-0.1644287109375,0.828857421875,0.0009012222290039062
-0.0679931640625,-0.1517333984375,0.825439453125,0.0009012222290039062
-0.0714111328125,-0.1563720703125,0.833984375,0.0009016990661621094
-0.0714111328125,-0.1563720703125,0.833984375,0.0008997917175292969
-0.0723876953125,-0.1524658203125,0.84326171875,0.0009849071502685547
-0.0689697265625,-0.1575927734375,0.840087890625,0.0009052753448486328
-0.0628662109375,-0.1585693359375,0.829345703125,0.0009036064147949219
-0.0697021484375,-0.1636962890625,0.831298828125,0.0009014606475830078
-0.0675048828125,-0.1558837890625,0.836669921875,0.0009016990661621094
-0.0653076171875,-0.1585693359375,0.8349609375,0.0009007453918457031
-0.0667724609375,-0.1634521484375,0.824951171875,0.0009007453918457031
-0.0697021484375,-0.1622314453125,0.8310546875,0.0009014606475830078
-0.0679931640625,-0.1619873046875,0.832763671875,0.0009002685546875
-0.0697021484375,-0.1563720703125,0.83447265625,0.0009012222290039062
-0.0697021484375,-0.1563720703125,0.83447265625,0.0009009838104248047
-0.0723876953125,-0.1590576171875,0.833251953125,0.0009014606475830078
-0.0682373046875,-0.1617431640625,0.835205078125,0.0009002685546875
-0.0675048828125,-0.1614990234375,0.83447265625,0.0009005069732666016
-0.0660400390625,-0.1607666015625,0.833251953125,0.0009002685546875
-0.0731201171875,-0.1636962890625,0.83837890625,0.0009002685546875
-0.0672607421875,-0.1676025390625,0.82861328125,0.0009016990661621094
-0.0645751953125,-0.1588134765625,0.825439453125,0.0009002685546875
-0.0682373046875,-0.1610107421875,0.832763671875,0.0009005069732666016
-0.0731201171875,-0.1588134765625,0.828857421875,0.0009005069732666016
-0.0731201171875,-0.1588134765625,0.828857421875,0.0009012222290039062
-0.0692138671875,-0.1639404296875,0.83935546875,0.0008997917175292969
-0.0714111328125,-0.1585693359375,0.837890625,0.0009007453918457031
-0.0740966796875,-0.1558837890625,0.834228515625,0.0009012222290039062
-0.0745849609375,-0.1568603515625,0.833251953125,0.0009021759033203125
-0.0697021484375,-0.1588134765625,0.83740234375,0.0009007453918457031
-0.0692138671875,-0.1556396484375,0.828369140625,0.0009009838104248047
-0.0692138671875,-0.1573486328125,0.8359375,0.0009012222290039062
-0.0743408203125,-0.1553955078125,0.840087890625,0.0009012222290039062
-0.0733642578125,-0.1595458984375,0.838623046875,0.0009012222290039062
-0.0733642578125,-0.1595458984375,0.838623046875,0.0009014606475830078
-0.0684814453125,-0.1590576171875,0.827392578125,0.0009009838104248047
-0.0633544921875,-0.1583251953125,0.833740234375,0.0009012222290039062
-0.0655517578125,-0.1575927734375,0.825927734375,0.0009021759033203125
-0.0687255859375,-0.1617431640625,0.83642578125,0.0009007453918457031
-0.0704345703125,-0.1649169921875,0.837158203125,0.0009012222290039062
-0.0655517578125,-0.1617431640625,0.830078125,0.0009005069732666016
-0.0716552734375,-0.1617431640625,0.828369140625,0.0009007453918457031
-0.0672607421875,-0.1593017578125,0.841796875,0.0009019374847412109
-0.0711669921875,-0.1619873046875,0.83935546875,0.0009000301361083984
-0.0711669921875,-0.1619873046875,0.83935546875,0.0009009838104248047
-0.0701904296875,-0.1617431640625,0.83544921875,0.0009009838104248047
-0.0692138671875,-0.1551513671875,0.843994140625,0.0009014606475830078
-0.0701904296875,-0.1563720703125,0.83203125,0.0009002685546875
-0.0716552734375,-0.1566162109375,0.84033203125,0.0009009838104248047
-0.0706787109375,-0.1624755859375,0.833740234375,0.0009009838104248047
-0.0687255859375,-0.1600341796875,0.827392578125,0.0009012222290039062
-0.0697021484375,-0.1588134765625,0.824951171875,0.0009250640869140625
-0.0711669921875,-0.1641845703125,0.826904296875,0.0009012222290039062
-0.0692138671875,-0.1610107421875,0.827392578125,0.0009012222290039062
-0.0736083984375,-0.1593017578125,0.82421875,0.0009012222290039062
-0.0736083984375,-0.1593017578125,0.82421875,0.0009014606475830078
-0.0677490234375,-0.1661376953125,0.835693359375,0.0008997917175292969
-0.0726318359375,-0.1612548828125,0.8388671875,0.0009012222290039062
-0.0738525390625,-0.1595458984375,0.83056640625,0.0009009838104248047
-0.0684814453125,-0.1583251953125,0.83837890625,0.0009014606475830078
-0.0665283203125,-0.1636962890625,0.82470703125,0.0009002685546875
-0.0721435546875,-0.1602783203125,0.83349609375,0.0009002685546875
-0.0721435546875,-0.1590576171875,0.8388671875,0.0009000301361083984
-0.0694580078125,-0.1666259765625,0.83837890625,0.0009005069732666016
-0.0706787109375,-0.1622314453125,0.83154296875,0.0009019374847412109
-0.0706787109375,-0.1622314453125,0.83154296875,0.0009009838104248047
-0.0699462890625,-0.1617431640625,0.8349609375,0.0009009838104248047
-0.0718994140625,-0.1614990234375,0.828857421875,0.0009005069732666016
-0.0677490234375,-0.1619873046875,0.82958984375,0.0009016990661621094
-0.0689697265625,-0.1595458984375,0.833740234375,0.0009007453918457031
-0.0657958984375,-0.1593017578125,0.828369140625,0.0009012222290039062
-0.0701904296875,-0.1575927734375,0.830078125,0.0009012222290039062
-0.0657958984375,-0.1556396484375,0.827392578125,0.0009002685546875
-0.0701904296875,-0.1605224609375,0.833984375,0.0009012222290039062
-0.0714111328125,-0.1578369140625,0.82958984375,0.0009002685546875
-0.0714111328125,-0.1578369140625,0.82958984375,0.0009007453918457031
-0.0697021484375,-0.1597900390625,0.83154296875,0.0009007453918457031
-0.0706787109375,-0.1566162109375,0.833984375,0.0009014606475830078
-0.0699462890625,-0.1585693359375,0.831298828125,0.0009002685546875
-0.0672607421875,-0.1632080078125,0.825439453125,0.0009007453918457031
-0.0699462890625,-0.1656494140625,0.822509765625,0.0009007453918457031
-0.0718994140625,-0.1639404296875,0.828369140625,0.0009016990661621094
-0.0726318359375,-0.1661376953125,0.823974609375,0.0009002685546875
-0.0721435546875,-0.1614990234375,0.834716796875,0.0009005069732666016
-0.0699462890625,-0.1583251953125,0.833251953125,0.0009002685546875
-0.0699462890625,-0.1583251953125,0.833251953125,0.0009005069732666016
-0.0679931640625,-0.1573486328125,0.832763671875,0.0009009838104248047
-0.0726318359375,-0.1585693359375,0.834716796875,0.0009002685546875
-0.0728759765625,-0.1571044921875,0.826171875,0.0009005069732666016
-0.0667724609375,-0.1571044921875,0.83154296875,0.0009009838104248047
-0.0679931640625,-0.1580810546875,0.834716796875,0.0009012222290039062
-0.0662841796875,-0.1614990234375,0.836181640625,0.0009007453918457031
-0.0684814453125,-0.1607666015625,0.8388671875,0.0009007453918457031
-0.0728759765625,-0.1585693359375,0.83203125,0.0009009838104248047
-0.0745849609375,-0.1583251953125,0.83154296875,0.0009012222290039062
-0.0704345703125,-0.1639404296875,0.829833984375,0.0009016990661621094
-0.0704345703125,-0.1639404296875,0.829833984375,0.0009005069732666016
-0.0660400390625,-0.1624755859375,0.827392578125,0.0009009838104248047
-0.0706787109375,-0.1612548828125,0.8212890625,0.0009009838104248047
-0.0697021484375,-0.1607666015625,0.828369140625,0.0009014606475830078
-0.0704345703125,-0.1605224609375,0.831787109375,0.0009000301361083984
-0.0672607421875,-0.1614990234375,0.835205078125,0.0009009838104248047
-0.0697021484375,-0.1666259765625,0.833740234375,0.0009005069732666016
-0.0631103515625,-0.1673583984375,0.83203125,0.0009005069732666016
-0.0679931640625,-0.1607666015625,0.831787109375,0.0009009838104248047
-0.0726318359375,-0.1597900390625,0.840087890625,0.0009005069732666016
-0.0726318359375,-0.1597900390625,0.840087890625,0.0009007453918457031
-0.0684814453125,-0.1578369140625,0.832763671875,0.0009005069732666016
-0.0706787109375,-0.1617431640625,0.831787109375,0.0009016990661621094
-0.0684814453125,-0.1624755859375,0.833740234375,0.0009000301361083984
-0.0692138671875,-0.1610107421875,0.828857421875,0.0009005069732666016
-0.0660400390625,-0.1607666015625,0.835693359375,0.0009014606475830078
-0.0648193359375,-0.1632080078125,0.82177734375,0.0009016990661621094
-0.0677490234375,-0.1641845703125,0.82958984375,0.0009009838104248047
-0.0677490234375,-0.1588134765625,0.832763671875,0.0009012222290039062
-0.0699462890625,-0.1607666015625,0.83740234375,0.0009012222290039062
-0.0699462890625,-0.1607666015625,0.83740234375,0.0009007453918457031
-0.0709228515625,-0.1595458984375,0.842041015625,0.0009014606475830078
-0.0667724609375,-0.1636962890625,0.834228515625,0.0009002685546875
-0.0643310546875,-0.1646728515625,0.832275390625,0.0009005069732666016
-0.0677490234375,-0.1656494140625,0.823974609375,0.0009791851043701172
-0.0709228515625,-0.1661376953125,0.84326171875,0.0009050369262695312
-0.0728759765625,-0.1683349609375,0.837158203125,0.0009033679962158203
-0.0697021484375,-0.1600341796875,0.8359375,0.0009026527404785156
-0.0655517578125,-0.1580810546875,0.829833984375,0.0009012222290039062
-0.0689697265625,-0.1590576171875,0.8330078125,0.0009014606475830078
-0.0657958984375,-0.1612548828125,0.833740234375,0.0009021759033203125
-0.0657958984375,-0.1612548828125,0.833740234375,0.0009007453918457031
-0.0670166015625,-0.1585693359375,0.831787109375,0.0009002685546875
-0.0650634765625,-0.1590576171875,0.829345703125,0.0009012222290039062
-0.0733642578125,-0.1573486328125,0.823974609375,0.0009031295776367188
-0.0653076171875,-0.1590576171875,0.83935546875,0.0008997917175292969
-0.0653076171875,-0.1617431640625,0.8271484375,0.0009012222290039062
-0.0694580078125,-0.1629638671875,0.829833984375,0.0009009838104248047
-0.0687255859375,-0.1678466796875,0.842529296875,0.0009024143218994141
-0.0679931640625,-0.1588134765625,0.83642578125,0.0008997917175292969
-0.0711669921875,-0.1619873046875,0.82275390625,0.0009009838104248047
-0.0711669921875,-0.1619873046875,0.82275390625,0.0009014606475830078
-0.0667724609375,-0.1634521484375,0.826416015625,0.0009007453918457031
-0.0728759765625,-0.1580810546875,0.831298828125,0.0009019374847412109
-0.0684814453125,-0.1573486328125,0.839111328125,0.0009009838104248047
-0.0660400390625,-0.1605224609375,0.830322265625,0.0009012222290039062
-0.0643310546875,-0.1656494140625,0.83154296875,0.0009007453918457031
-0.0687255859375,-0.1600341796875,0.8330078125,0.0009016990661621094
-0.0687255859375,-0.1575927734375,0.826904296875,0.0009005069732666016
-0.0726318359375,-0.1605224609375,0.82666015625,0.0009014606475830078
-0.0660400390625,-0.1593017578125,0.82421875,0.0009012222290039062
-0.0675048828125,-0.1597900390625,0.828857421875,0.0009009838104248047
-0.0675048828125,-0.1597900390625,0.828857421875,0.0009016990661621094
-0.0718994140625,-0.1644287109375,0.837158203125,0.0008997917175292969
-0.0745849609375,-0.1556396484375,0.82666015625,0.0009009838104248047
-0.0718994140625,-0.1566162109375,0.83251953125,0.0009007453918457031
-0.0706787109375,-0.1600341796875,0.835693359375,0.0009014606475830078
-0.0684814453125,-0.1607666015625,0.83251953125,0.0009005069732666016
-0.0596923828125,-0.1544189453125,0.8310546875,0.0009014606475830078
-0.0662841796875,-0.1575927734375,0.84130859375,0.0009007453918457031
-0.0692138671875,-0.1575927734375,0.832763671875,0.0009016990661621094
-0.0623779296875,-0.1583251953125,0.834716796875,0.0009007453918457031
-0.0623779296875,-0.1583251953125,0.834716796875,0.0009007453918457031
-0.0623779296875,-0.1541748046875,0.833984375,0.0009009838104248047
-0.0701904296875,-0.1607666015625,0.831298828125,0.0009007453918457031
-0.0714111328125,-0.1593017578125,0.832275390625,0.0009021759033203125
-0.0687255859375,-0.1641845703125,0.833740234375,0.0009005069732666016
-0.0687255859375,-0.1602783203125,0.829345703125,0.0009009838104248047
-0.0667724609375,-0.1641845703125,0.831787109375,0.0009007453918457031
-0.0672607421875,-0.1651611328125,0.826416015625,0.0009014606475830078
-0.0657958984375,-0.1597900390625,0.826416015625,0.0009007453918457031
-0.0711669921875,-0.1602783203125,0.826904296875,0.0009007453918457031
-0.0711669921875,-0.1602783203125,0.826904296875,0.0009009838104248047
-0.0704345703125,-0.1590576171875,0.82763671875,0.0009009838104248047
-0.0599365234375,-0.1563720703125,0.824462890625,0.0009019374847412109
-0.0657958984375,-0.1658935546875,0.82958984375,0.0009002685546875
-0.0767822265625,-0.1602783203125,0.82958984375,0.0009000301361083984
-0.0697021484375,-0.1597900390625,0.836181640625,0.0009009838104248047
-0.0709228515625,-0.1583251953125,0.835693359375,0.0009019374847412109
-0.0733642578125,-0.1661376953125,0.834716796875,0.0009002685546875
-0.0726318359375,-0.1568603515625,0.831787109375,0.0009005069732666016
-0.0711669921875,-0.1556396484375,0.83203125,0.0009012222290039062
-0.0711669921875,-0.1556396484375,0.83203125,0.0009000301361083984
-0.0665283203125,-0.1546630859375,0.83544921875,0.0009009838104248047
-0.0721435546875,-0.1561279296875,0.83544921875,0.0009007453918457031
-0.0709228515625,-0.1590576171875,0.834716796875,0.0009009838104248047
-0.0716552734375,-0.1632080078125,0.83447265625,0.0009009838104248047
-0.0665283203125,-0.1644287109375,0.8388671875,0.0009016990661621094
-0.0697021484375,-0.1602783203125,0.8369140625,0.0009005069732666016
-0.0697021484375,-0.1575927734375,0.826416015625,0.0009009838104248047
-0.0731201171875,-0.1595458984375,0.828369140625,0.0009009838104248047
-0.0743408203125,-0.1588134765625,0.834716796875,0.0009012222290039062
-0.0682373046875,-0.1568603515625,0.83544921875,0.0009019374847412109
-0.0682373046875,-0.1568603515625,0.83544921875,0.0009007453918457031
-0.0704345703125,-0.1614990234375,0.834228515625,0.0009009838104248047
-0.0723876953125,-0.1597900390625,0.82958984375,0.0009012222290039062
-0.0655517578125,-0.1588134765625,0.824951171875,0.0009016990661621094
-0.0716552734375,-0.1590576171875,0.83447265625,0.0009002685546875
-0.0743408203125,-0.1593017578125,0.82666015625,0.0009002685546875
-0.0665283203125,-0.1583251953125,0.825927734375,0.0009007453918457031
-0.0701904296875,-0.1602783203125,0.826904296875,0.0009016990661621094
-0.0743408203125,-0.1610107421875,0.832275390625,0.0009009838104248047
-0.0733642578125,-0.1629638671875,0.838623046875,0.0009012222290039062
-0.0733642578125,-0.1629638671875,0.838623046875,0.0009014606475830078
-0.0709228515625,-0.1629638671875,0.83837890625,0.0009002685546875
-0.0653076171875,-0.1607666015625,0.837158203125,0.0009009838104248047
-0.0662841796875,-0.1617431640625,0.83935546875,0.0009005069732666016
-0.0692138671875,-0.1673583984375,0.837890625,0.0009012222290039062
-0.0714111328125,-0.1573486328125,0.827880859375,0.0009007453918457031
-0.0689697265625,-0.1563720703125,0.824462890625,0.0009012222290039062
-0.0689697265625,-0.1617431640625,0.830322265625,0.0009009838104248047
-0.0711669921875,-0.1629638671875,0.831787109375,0.0009002685546875
-0.0711669921875,-0.1593017578125,0.826171875,0.0009005069732666016
-0.0711669921875,-0.1593017578125,0.826171875,0.0009012222290039062
-0.0736083984375,-0.1634521484375,0.820068359375,0.0009014606475830078
-0.0758056640625,-0.1634521484375,0.822021484375,0.0009007453918457031
-0.0701904296875,-0.1641845703125,0.8291015625,0.0009009838104248047
-0.0711669921875,-0.1644287109375,0.834228515625,0.0009012222290039062
-0.0660400390625,-0.1622314453125,0.833984375,0.0009019374847412109
-0.0677490234375,-0.1612548828125,0.8359375,0.0008997917175292969
-0.0662841796875,-0.1593017578125,0.832763671875,0.0009007453918457031
-0.0687255859375,-0.1612548828125,0.83251953125,0.0009009838104248047
-0.0665283203125,-0.1605224609375,0.8359375,0.0009016990661621094
-0.0665283203125,-0.1605224609375,0.8359375,0.0009012222290039062
-0.0760498046875,-0.1597900390625,0.827392578125,0.0009002685546875
-0.0750732421875,-0.1622314453125,0.827392578125,0.0009009838104248047
-0.0694580078125,-0.1578369140625,0.828125,0.0009007453918457031
-0.0711669921875,-0.1585693359375,0.837158203125,0.0009014606475830078
-0.0682373046875,-0.1590576171875,0.846435546875,0.0009005069732666016
-0.0694580078125,-0.1597900390625,0.84423828125,0.0009012222290039062
-0.0758056640625,-0.1558837890625,0.8349609375,0.0009007453918457031
-0.0745849609375,-0.1549072265625,0.836181640625,0.0009014606475830078
-0.0738525390625,-0.1551513671875,0.831787109375,0.0009005069732666016
-0.0738525390625,-0.1551513671875,0.831787109375,0.0009009838104248047
-0.0704345703125,-0.1636962890625,0.833740234375,0.0009007453918457031
-0.0662841796875,-0.1575927734375,0.84375,0.0009009838104248047
-0.0687255859375,-0.1658935546875,0.83447265625,0.0009012222290039062
-0.0697021484375,-0.1658935546875,0.828369140625,0.0009007453918457031
-0.0716552734375,-0.1610107421875,0.830078125,0.0009012222290039062
-0.0740966796875,-0.1553955078125,0.835693359375,0.0009012222290039062
-0.0709228515625,-0.1510009765625,0.8349609375,0.00098419189453125
-0.0667724609375,-0.1473388671875,0.827392578125,0.000904083251953125
-0.0660400390625,-0.1531982421875,0.827392578125,0.0009024143218994141
-0.0648193359375,-0.1561279296875,0.8310546875,0.0009019374847412109
-0.0667724609375,-0.1668701171875,0.834228515625,0.0009016990661621094
-0.0667724609375,-0.1668701171875,0.834228515625,0.0009021759033203125
-0.0677490234375,-0.1578369140625,0.83251953125,0.0009012222290039062
-0.0709228515625,-0.1563720703125,0.840576171875,0.0009012222290039062
-0.0643310546875,-0.1529541015625,0.834716796875,0.0009007453918457031
-0.0665283203125,-0.1578369140625,0.8359375,0.0009019374847412109
-0.0694580078125,-0.1585693359375,0.837646484375,0.0009007453918457031
-0.0738525390625,-0.1595458984375,0.828369140625,0.0009012222290039062
-0.0733642578125,-0.1639404296875,0.827880859375,0.0009014606475830078
-0.0677490234375,-0.1578369140625,0.832763671875,0.0009012222290039062
-0.0689697265625,-0.1612548828125,0.831298828125,0.0009009838104248047
-0.0689697265625,-0.1612548828125,0.831298828125,0.0009009838104248047
-0.0655517578125,-0.1649169921875,0.836181640625,0.0009007453918457031
-0.0660400390625,-0.1641845703125,0.8447265625,0.0009007453918457031
-0.0731201171875,-0.1590576171875,0.82958984375,0.0009024143218994141
-0.0711669921875,-0.1602783203125,0.822265625,0.0009007453918457031
-0.0706787109375,-0.1561279296875,0.833251953125,0.0009007453918457031
-0.0682373046875,-0.1551513671875,0.83251953125,0.0009012222290039062
-0.0697021484375,-0.1563720703125,0.831787109375,0.0009024143218994141
-0.0672607421875,-0.1541748046875,0.83447265625,0.0009000301361083984
-0.0699462890625,-0.1563720703125,0.834228515625,0.0009007453918457031
-0.0699462890625,-0.1563720703125,0.834228515625,0.0009014606475830078
-0.0706787109375,-0.1595458984375,0.83740234375,0.0009009838104248047
-0.0653076171875,-0.1583251953125,0.840087890625,0.0009016990661621094
-0.0697021484375,-0.1561279296875,0.84326171875,0.0009005069732666016
-0.0648193359375,-0.1561279296875,0.842529296875,0.0009014606475830078
-0.0648193359375,-0.1612548828125,0.833251953125,0.0009002685546875
-0.0689697265625,-0.1629638671875,0.8291015625,0.0009014606475830078
-0.0640869140625,-0.1644287109375,0.8388671875,0.0009005069732666016
-0.0621337890625,-0.1632080078125,0.838134765625,0.0009009838104248047
-0.0653076171875,-0.1612548828125,0.83837890625,0.0009012222290039062
-0.0653076171875,-0.1612548828125,0.83837890625,0.0009007453918457031
-0.0697021484375,-0.1585693359375,0.826904296875,0.0009222030639648438
-0.0679931640625,-0.1605224609375,0.837646484375,0.0009024143218994141
-0.0675048828125,-0.1632080078125,0.831787109375,0.0009012222290039062
-0.0670166015625,-0.1624755859375,0.832275390625,0.0009012222290039062
-0.0631103515625,-0.1636962890625,0.825927734375,0.0009019374847412109
-0.0682373046875,-0.1666259765625,0.828125,0.0009002685546875
-0.0704345703125,-0.1685791015625,0.83837890625,0.0009005069732666016
-0.0704345703125,-0.1639404296875,0.822509765625,0.0009009838104248047
-0.0655517578125,-0.1622314453125,0.822265625,0.0009016990661621094
-0.0601806640625,-0.1593017578125,0.835205078125,0.0009000301361083984
-0.0601806640625,-0.1593017578125,0.835205078125,0.0009012222290039062
-0.0692138671875,-0.1568603515625,0.837890625,0.0009009838104248047
-0.0740966796875,-0.1600341796875,0.837158203125,0.0009002685546875
-0.0689697265625,-0.1629638671875,0.826904296875,0.0009012222290039062
-0.0638427734375,-0.1632080078125,0.831298828125,0.0009002685546875
-0.0679931640625,-0.1634521484375,0.845947265625,0.0009007453918457031
-0.0667724609375,-0.1566162109375,0.83544921875,0.0009005069732666016
-0.0638427734375,-0.1641845703125,0.83056640625,0.0009019374847412109
-0.0687255859375,-0.1656494140625,0.842529296875,0.0009002685546875
-0.0692138671875,-0.1578369140625,0.8349609375,0.0009007453918457031
-0.0692138671875,-0.1578369140625,0.8349609375,0.0009007453918457031
-0.0714111328125,-0.1566162109375,0.832763671875,0.0009007453918457031
-0.0689697265625,-0.1580810546875,0.826416015625,0.0009012222290039062
-0.0655517578125,-0.1656494140625,0.835693359375,0.0009005069732666016
-0.0687255859375,-0.1641845703125,0.826904296875,0.0009007453918457031
-0.0670166015625,-0.1573486328125,0.8212890625,0.0009007453918457031
-0.0706787109375,-0.1627197265625,0.833984375,0.0009014606475830078
-0.0699462890625,-0.1632080078125,0.8330078125,0.0009007453918457031
-0.0723876953125,-0.1654052734375,0.8388671875,0.0009009838104248047
-0.0692138671875,-0.1597900390625,0.83447265625,0.0009009838104248047
-0.0692138671875,-0.1597900390625,0.83447265625,0.0009016990661621094
-0.0692138671875,-0.1588134765625,0.833740234375,0.0008995532989501953
-0.0704345703125,-0.1600341796875,0.835693359375,0.0009009838104248047
-0.0655517578125,-0.1632080078125,0.827880859375,0.0009009838104248047
-0.0682373046875,-0.1627197265625,0.83056640625,0.0009009838104248047
-0.0711669921875,-0.1585693359375,0.834228515625,0.0009012222290039062
-0.0709228515625,-0.1605224609375,0.83544921875,0.0009005069732666016
-0.0684814453125,-0.1617431640625,0.834228515625,0.0009009838104248047
-0.0697021484375,-0.1622314453125,0.826416015625,0.0009007453918457031
-0.0711669921875,-0.1602783203125,0.822021484375,0.0009016990661621094
-0.0711669921875,-0.1602783203125,0.822021484375,0.0009007453918457031
-0.0736083984375,-0.1595458984375,0.831298828125,0.0009009838104248047
-0.0706787109375,-0.1602783203125,0.829833984375,0.0009009838104248047
-0.0701904296875,-0.1590576171875,0.830810546875,0.0009005069732666016
-0.0728759765625,-0.1588134765625,0.826171875,0.0009016990661621094
-0.0679931640625,-0.1593017578125,0.826904296875,0.0009005069732666016
-0.0638427734375,-0.1578369140625,0.8349609375,0.0009014606475830078
-0.0665283203125,-0.1597900390625,0.8291015625,0.000904083251953125
-0.0679931640625,-0.1597900390625,0.840576171875,0.0008995532989501953
-0.0711669921875,-0.1639404296875,0.841796875,0.0009012222290039062
-0.0736083984375,-0.1588134765625,0.83447265625,0.0009012222290039062
-0.0736083984375,-0.1588134765625,0.83447265625,0.0009005069732666016
-0.0675048828125,-0.1617431640625,0.82763671875,0.0009005069732666016
-0.0709228515625,-0.1622314453125,0.8369140625,0.0009009838104248047
-0.0755615234375,-0.1634521484375,0.831787109375,0.0009009838104248047
-0.0711669921875,-0.1614990234375,0.823974609375,0.0009012222290039062
-0.0701904296875,-0.1619873046875,0.832763671875,0.0009012222290039062
-0.0675048828125,-0.1632080078125,0.840576171875,0.0009021759033203125
-0.0728759765625,-0.1634521484375,0.843505859375,0.0009005069732666016
-0.0728759765625,-0.1578369140625,0.835205078125,0.0009009838104248047
-0.0677490234375,-0.1571044921875,0.840087890625,0.0009005069732666016
-0.0677490234375,-0.1571044921875,0.840087890625,0.0009016990661621094
-0.0692138671875,-0.1546630859375,0.8369140625,0.0009007453918457031
-0.0718994140625,-0.1600341796875,0.832275390625,0.0009005069732666016
-0.0684814453125,-0.1610107421875,0.828369140625,0.0009005069732666016
-0.0748291015625,-0.1619873046875,0.829345703125,0.0009138584136962891
-0.0753173828125,-0.1649169921875,0.837158203125,0.0009074211120605469
-0.0711669921875,-0.1575927734375,0.827880859375,0.0009016990661621094
-0.0692138671875,-0.1583251953125,0.8271484375,0.0009024143218994141
-0.0655517578125,-0.1639404296875,0.8349609375,0.0009024143218994141
-0.0687255859375,-0.1661376953125,0.83447265625,0.0009024143218994141
-0.0687255859375,-0.1661376953125,0.83447265625,0.0009009838104248047
-0.0692138671875,-0.1607666015625,0.82666015625,0.0009016990661621094
-0.0675048828125,-0.1536865234375,0.82275390625,0.0009019374847412109
-0.0679931640625,-0.1602783203125,0.83447265625,0.0009012222290039062
-0.0645751953125,-0.1605224609375,0.832275390625,0.0009024143218994141
-0.0667724609375,-0.1590576171875,0.827880859375,0.0009009838104248047
-0.0614013671875,-0.1585693359375,0.832275390625,0.0009016990661621094
-0.0626220703125,-0.1585693359375,0.83984375,0.0009016990661621094
-0.0706787109375,-0.1571044921875,0.834716796875,0.0009019374847412109
-0.0731201171875,-0.1566162109375,0.835205078125,0.0009989738464355469
-0.0709228515625,-0.1607666015625,0.837646484375,0.0009055137634277344
-0.0662841796875,-0.1607666015625,0.83740234375,0.0009028911590576172
-0.0662841796875,-0.1607666015625,0.83740234375,0.0009207725524902344
-0.0716552734375,-0.1617431640625,0.827392578125,0.0009024143218994141
-0.0718994140625,-0.1610107421875,0.82763671875,0.0009021759033203125
-0.0701904296875,-0.1614990234375,0.8349609375,0.0009021759033203125
-0.0704345703125,-0.1585693359375,0.830322265625,0.0009016990661621094
-0.0679931640625,-0.1553955078125,0.827392578125,0.0009026527404785156
-0.0699462890625,-0.1600341796875,0.827880859375,0.0009012222290039062
-0.0762939453125,-0.1617431640625,0.836669921875,0.0009014606475830078
-0.0721435546875,-0.1617431640625,0.833984375,0.0009016990661621094
-0.0682373046875,-0.1605224609375,0.83642578125,0.0009019374847412109
-0.0682373046875,-0.1605224609375,0.83642578125,0.0009007453918457031
-0.0643310546875,-0.1583251953125,0.833251953125,0.0009007453918457031
-0.0657958984375,-0.1566162109375,0.82568359375,0.0009016990661621094
-0.0643310546875,-0.1561279296875,0.819580078125,0.0009014606475830078
-0.0670166015625,-0.1593017578125,0.822998046875,0.0009016990661621094
-0.0716552734375,-0.1602783203125,0.832763671875,0.0008993148803710938
-0.0699462890625,-0.1573486328125,0.82666015625,0.0009000301361083984
-0.0706787109375,-0.1575927734375,0.835693359375,0.0008995532989501953
-0.0699462890625,-0.1619873046875,0.833984375,0.0009028911590576172
-0.0745849609375,-0.1619873046875,0.829833984375,0.0009024143218994141
-0.0738525390625,-0.1551513671875,0.82177734375,0.0009012222290039062
-0.0738525390625,-0.1551513671875,0.82177734375,0.0009016990661621094
-0.0692138671875,-0.1627197265625,0.82373046875,0.000911712646484375
-0.0650634765625,-0.1668701171875,0.83642578125,0.0009024143218994141
-0.0689697265625,-0.1590576171875,0.836669921875,0.0009012222290039062
-0.0716552734375,-0.1588134765625,0.83056640625,0.0009019374847412109
-0.0682373046875,-0.1605224609375,0.82861328125,0.0009009838104248047
-0.0704345703125,-0.1583251953125,0.832275390625,0.0009021759033203125
-0.0704345703125,-0.1585693359375,0.8271484375,0.0009007453918457031
-0.0667724609375,-0.1571044921875,0.836669921875,0.0009009838104248047
-0.0657958984375,-0.1607666015625,0.831787109375,0.0009014606475830078
-0.0657958984375,-0.1607666015625,0.831787109375,0.0009021759033203125
-0.0714111328125,-0.1612548828125,0.8310546875,0.0008995532989501953
-0.0657958984375,-0.1544189453125,0.831787109375,0.0008997917175292969
-0.0679931640625,-0.1583251953125,0.83642578125,0.0008997917175292969
-0.0689697265625,-0.1644287109375,0.84130859375,0.0009000301361083984
-0.0697021484375,-0.1639404296875,0.835693359375,0.0009019374847412109
-0.0716552734375,-0.1666259765625,0.838623046875,0.0009021759033203125
-0.0679931640625,-0.1634521484375,0.84130859375,0.0009019374847412109
-0.0689697265625,-0.1602783203125,0.8447265625,0.0009016990661621094
-0.0689697265625,-0.1622314453125,0.832763671875,0.0009019374847412109
-0.0689697265625,-0.1622314453125,0.832763671875,0.0009005069732666016
-0.0665283203125,-0.1617431640625,0.8466796875,0.0009014606475830078
-0.0709228515625,-0.1632080078125,0.832275390625,0.0009007453918457031
-0.0679931640625,-0.1549072265625,0.8349609375,0.0009007453918457031
-0.0740966796875,-0.1566162109375,0.835205078125,0.0009016990661621094
-0.0718994140625,-0.1595458984375,0.833740234375,0.0009007453918457031
-0.0677490234375,-0.1622314453125,0.83154296875,0.0009009838104248047
-0.0689697265625,-0.1610107421875,0.8349609375,0.0009012222290039062
-0.0648193359375,-0.1632080078125,0.83740234375,0.0009016990661621094
-0.0677490234375,-0.1627197265625,0.831787109375,0.0009009838104248047
-0.0677490234375,-0.1627197265625,0.831787109375,0.0009012222290039062
-0.0638427734375,-0.1610107421875,0.8359375,0.0009009838104248047
-0.0699462890625,-0.1661376953125,0.83642578125,0.0009012222290039062
-0.0697021484375,-0.1627197265625,0.8349609375,0.0009005069732666016
-0.0714111328125,-0.1571044921875,0.831298828125,0.0009009838104248047
-0.0657958984375,-0.1568603515625,0.819580078125,0.0009009838104248047
-0.0655517578125,-0.1610107421875,0.82568359375,0.0009012222290039062
-0.0670166015625,-0.1600341796875,0.8291015625,0.0009014606475830078
-0.0687255859375,-0.1600341796875,0.833251953125,0.0009002685546875
-0.0697021484375,-0.1593017578125,0.833984375,0.0009012222290039062
-0.0721435546875,-0.1593017578125,0.83740234375,0.0009009838104248047
-0.0721435546875,-0.1593017578125,0.83740234375,0.0009024143218994141
-0.0721435546875,-0.1571044921875,0.8388671875,0.0009002685546875
-0.0672607421875,-0.1605224609375,0.823486328125,0.0009007453918457031
-0.0697021484375,-0.1580810546875,0.825439453125,0.0009005069732666016
-0.0650634765625,-0.1571044921875,0.827392578125,0.0009014606475830078
-0.0689697265625,-0.1627197265625,0.84228515625,0.0009019374847412109
-0.0643310546875,-0.1602783203125,0.8369140625,0.0009009838104248047
-0.0638427734375,-0.1641845703125,0.833740234375,0.0009012222290039062
-0.0704345703125,-0.1651611328125,0.834228515625,0.0009014606475830078
-0.0687255859375,-0.1619873046875,0.8271484375,0.0009019374847412109
-0.0687255859375,-0.1619873046875,0.8271484375,0.0009000301361083984
-0.0679931640625,-0.1595458984375,0.835205078125,0.0009005069732666016
-0.0728759765625,-0.1595458984375,0.83154296875,0.0009014606475830078
-0.0731201171875,-0.1634521484375,0.840576171875,0.0009007453918457031
-0.0755615234375,-0.1624755859375,0.841064453125,0.0009016990661621094
-0.0684814453125,-0.1614990234375,0.832275390625,0.0009002685546875
-0.0682373046875,-0.1627197265625,0.826904296875,0.0009012222290039062
-0.0701904296875,-0.1556396484375,0.8369140625,0.0009009838104248047
-0.0716552734375,-0.1539306640625,0.82666015625,0.0009014606475830078
-0.0672607421875,-0.1612548828125,0.827392578125,0.0009007453918457031
-0.0672607421875,-0.1612548828125,0.827392578125,0.0009009838104248047
-0.0638427734375,-0.1661376953125,0.83642578125,0.0009007453918457031
-0.0699462890625,-0.1649169921875,0.83251953125,0.0009014606475830078
-0.0689697265625,-0.1636962890625,0.840576171875,0.0009005069732666016
-0.0792236328125,-0.1605224609375,0.829345703125,0.0009007453918457031
-0.0731201171875,-0.1688232421875,0.839599609375,0.0009009838104248047
-0.0701904296875,-0.1629638671875,0.83203125,0.0009012222290039062
-0.0665283203125,-0.1627197265625,0.83154296875,0.0009014606475830078
-0.0694580078125,-0.1558837890625,0.838623046875,0.0009007453918457031
-0.0689697265625,-0.1629638671875,0.841796875,0.0009009838104248047
-0.0689697265625,-0.1629638671875,0.841796875,0.0009012222290039062
-0.0701904296875,-0.1585693359375,0.833251953125,0.0009012222290039062
-0.0689697265625,-0.1612548828125,0.825439453125,0.0009002685546875
-0.0675048828125,-0.1634521484375,0.836669921875,0.0009009838104248047
-0.0721435546875,-0.1634521484375,0.835693359375,0.0009009838104248047
-0.0638427734375,-0.1551513671875,0.8330078125,0.0009012222290039062
-0.0638427734375,-0.1597900390625,0.83203125,0.0009014606475830078
-0.0672607421875,-0.1600341796875,0.834716796875,0.0009002685546875
-0.0657958984375,-0.1580810546875,0.828857421875,0.0009007453918457031
-0.0662841796875,-0.1556396484375,0.831787109375,0.0009005069732666016
-0.0728759765625,-0.1624755859375,0.8271484375,0.0009014606475830078
-0.0728759765625,-0.1624755859375,0.8271484375,0.0009007453918457031
-0.0675048828125,-0.1668701171875,0.825927734375,0.0009009838104248047
-0.0709228515625,-0.1619873046875,0.83154296875,0.0009014606475830078
-0.0621337890625,-0.1597900390625,0.834228515625,0.0009014606475830078
-0.0618896484375,-0.1624755859375,0.829345703125,0.0009014606475830078
-0.0623779296875,-0.1627197265625,0.83251953125,0.0009009838104248047
-0.0675048828125,-0.1593017578125,0.83837890625,0.0009007453918457031
-0.0716552734375,-0.1583251953125,0.837890625,0.0009007453918457031
-0.0699462890625,-0.1575927734375,0.83203125,0.0009016990661621094
-0.0682373046875,-0.1614990234375,0.83251953125,0.0008997917175292969
-0.0643310546875,-0.1619873046875,0.833251953125,0.0009796619415283203
-0.0643310546875,-0.1619873046875,0.833251953125,0.0009052753448486328
-0.0692138671875,-0.1619873046875,0.84716796875,0.0009028911590576172
-0.0672607421875,-0.1571044921875,0.835205078125,0.0009007453918457031
-0.0672607421875,-0.1571044921875,0.834228515625,0.0009012222290039062
-0.0655517578125,-0.1578369140625,0.824951171875,0.0009014606475830078
-0.0623779296875,-0.1607666015625,0.831298828125,0.0009016990661621094
-0.0672607421875,-0.1619873046875,0.829833984375,0.0009019374847412109
-0.0662841796875,-0.1646728515625,0.8291015625,0.0009007453918457031
-0.0638427734375,-0.1600341796875,0.827880859375,0.0009016990661621094
-0.0635986328125,-0.1639404296875,0.833251953125,0.0009012222290039062
-0.0635986328125,-0.1639404296875,0.833251953125,0.0009019374847412109
-0.0704345703125,-0.1610107421875,0.827392578125,0.0009005069732666016
-0.0694580078125,-0.1610107421875,0.832275390625,0.0009014606475830078
-0.0675048828125,-0.1605224609375,0.836669921875,0.0009007453918457031
-0.0706787109375,-0.1644287109375,0.82861328125,0.0009014606475830078
-0.0784912109375,-0.1624755859375,0.830322265625,0.0009024143218994141
-0.0665283203125,-0.1612548828125,0.834228515625,0.0009009838104248047
-0.0638427734375,-0.1595458984375,0.838623046875,0.0009007453918457031
-0.0609130859375,-0.1627197265625,0.8349609375,0.0009014606475830078
-0.0657958984375,-0.1654052734375,0.828369140625,0.0009016990661621094
-0.0657958984375,-0.1654052734375,0.828369140625,0.0009005069732666016
-0.0684814453125,-0.1612548828125,0.834228515625,0.0009009838104248047
-0.0679931640625,-0.1578369140625,0.828857421875,0.0009014606475830078
-0.0706787109375,-0.1593017578125,0.835693359375,0.0009019374847412109
-0.0697021484375,-0.1566162109375,0.830322265625,0.0009009838104248047
-0.0750732421875,-0.1551513671875,0.826171875,0.0009009838104248047
-0.0711669921875,-0.1622314453125,0.8251953125,0.0009005069732666016
-0.0653076171875,-0.1627197265625,0.833251953125,0.0009009838104248047
-0.0694580078125,-0.1588134765625,0.833740234375,0.0009016990661621094
-0.0699462890625,-0.1573486328125,0.836669921875,0.0009005069732666016
-0.0697021484375,-0.1607666015625,0.8330078125,0.0009014606475830078
-0.0697021484375,-0.1607666015625,0.8330078125,0.0009002685546875
-0.0706787109375,-0.1612548828125,0.830322265625,0.0009014606475830078
-0.0758056640625,-0.1632080078125,0.824951171875,0.0009002685546875
-0.0701904296875,-0.1595458984375,0.834716796875,0.0009007453918457031
-0.0679931640625,-0.1588134765625,0.83154296875,0.0009014606475830078
-0.0699462890625,-0.1600341796875,0.823486328125,0.0009009838104248047
-0.0697021484375,-0.1605224609375,0.830810546875,0.0009016990661621094
-0.0738525390625,-0.1602783203125,0.832275390625,0.0009007453918457031
-0.0706787109375,-0.1583251953125,0.830078125,0.0009009838104248047
-0.0711669921875,-0.1575927734375,0.841796875,0.0009009838104248047
-0.0711669921875,-0.1575927734375,0.841796875,0.0009014606475830078
-0.0679931640625,-0.1563720703125,0.84130859375,0.0009002685546875
-0.0689697265625,-0.1575927734375,0.835205078125,0.0009009838104248047
-0.0667724609375,-0.1614990234375,0.82568359375,0.0009012222290039062
-0.0633544921875,-0.1617431640625,0.832763671875,0.0009009838104248047
-0.0616455078125,-0.1656494140625,0.826416015625,0.0009014606475830078
-0.0716552734375,-0.1663818359375,0.83447265625,0.0009000301361083984
-0.0728759765625,-0.1593017578125,0.834716796875,0.0008995532989501953
-0.0711669921875,-0.1578369140625,0.8291015625,0.0008997917175292969
-0.0687255859375,-0.1553955078125,0.83447265625,0.0009019374847412109
-0.0687255859375,-0.1553955078125,0.83447265625,0.0009019374847412109
-0.0704345703125,-0.1590576171875,0.834228515625,0.0009014606475830078
-0.0711669921875,-0.1566162109375,0.83203125,0.0009009838104248047
-0.0740966796875,-0.1568603515625,0.828857421875,0.0009005069732666016
-0.0714111328125,-0.1597900390625,0.830810546875,0.0009009838104248047
-0.0721435546875,-0.1634521484375,0.831298828125,0.0009012222290039062
-0.0714111328125,-0.1627197265625,0.82861328125,0.0009012222290039062
-0.0709228515625,-0.1580810546875,0.830810546875,0.0009014606475830078
-0.0677490234375,-0.1573486328125,0.830810546875,0.0009019374847412109
-0.0723876953125,-0.1600341796875,0.828857421875,0.0009005069732666016
-0.0723876953125,-0.1600341796875,0.828857421875,0.0009007453918457031
-0.0706787109375,-0.1568603515625,0.829345703125,0.0009012222290039062
-0.0626220703125,-0.1561279296875,0.837158203125,0.0009019374847412109
-0.0704345703125,-0.1646728515625,0.834228515625,0.0009009838104248047
-0.0665283203125,-0.1634521484375,0.8369140625,0.0009012222290039062
-0.0704345703125,-0.1624755859375,0.837646484375,0.0009014606475830078
-0.0711669921875,-0.1612548828125,0.84033203125,0.0009014606475830078
-0.0643310546875,-0.1636962890625,0.8408203125,0.0009014606475830078
-0.0672607421875,-0.1629638671875,0.834228515625,0.0009005069732666016
-0.0653076171875,-0.1568603515625,0.839599609375,0.0009014606475830078
-0.0697021484375,-0.1588134765625,0.831298828125,0.0009009838104248047
-0.0697021484375,-0.1588134765625,0.831298828125,0.0009021759033203125
-0.0706787109375,-0.1600341796875,0.834228515625,0.0009009838104248047
-0.0689697265625,-0.1634521484375,0.832763671875,0.0009009838104248047
-0.0682373046875,-0.1605224609375,0.841796875,0.0009007453918457031
-0.0736083984375,-0.1546630859375,0.822998046875,0.0009148120880126953
-0.0733642578125,-0.1600341796875,0.828369140625,0.0009024143218994141
-0.0723876953125,-0.1624755859375,0.833740234375,0.0009014606475830078
-0.0704345703125,-0.1629638671875,0.837158203125,0.0009016990661621094
-0.0638427734375,-0.1605224609375,0.8408203125,0.0009012222290039062
-0.0687255859375,-0.1578369140625,0.827880859375,0.0009021759033203125
-0.0687255859375,-0.1578369140625,0.827880859375,0.0009005069732666016
-0.0679931640625,-0.1593017578125,0.833740234375,0.0009009838104248047
-0.0721435546875,-0.1636962890625,0.837158203125,0.0009014606475830078
-0.0675048828125,-0.1612548828125,0.83984375,0.0009019374847412109
-0.0709228515625,-0.1593017578125,0.838134765625,0.0009000301361083984
-0.0704345703125,-0.1612548828125,0.834716796875,0.0009014606475830078
-0.0706787109375,-0.1649169921875,0.831787109375,0.0009012222290039062
-0.0628662109375,-0.1617431640625,0.833984375,0.0009014606475830078
-0.0689697265625,-0.1578369140625,0.83251953125,0.0009009838104248047
-0.0755615234375,-0.1575927734375,0.822021484375,0.0009007453918457031
-0.0755615234375,-0.1575927734375,0.822021484375,0.0009012222290039062
-0.0706787109375,-0.1612548828125,0.82373046875,0.0009012222290039062
-0.0679931640625,-0.1558837890625,0.83251953125,0.0009014606475830078
-0.0709228515625,-0.1617431640625,0.82763671875,0.0009009838104248047
-0.0726318359375,-0.1634521484375,0.82958984375,0.0009012222290039062
-0.0701904296875,-0.1629638671875,0.8349609375,0.0009012222290039062
-0.0687255859375,-0.1612548828125,0.8291015625,0.0009009838104248047
-0.0660400390625,-0.1605224609375,0.830322265625,0.0009019374847412109
-0.0689697265625,-0.1561279296875,0.834716796875,0.0009005069732666016
-0.0653076171875,-0.1612548828125,0.823486328125,0.0009014606475830078
-0.0653076171875,-0.1612548828125,0.823486328125,0.0009012222290039062
-0.0697021484375,-0.1590576171875,0.827392578125,0.0009021759033203125
-0.0675048828125,-0.1536865234375,0.834716796875,0.0009005069732666016
-0.0728759765625,-0.1539306640625,0.83154296875,0.0009007453918457031
-0.0657958984375,-0.1605224609375,0.830810546875,0.0009009838104248047
-0.0701904296875,-0.1634521484375,0.82275390625,0.0009019374847412109
-0.0697021484375,-0.1600341796875,0.826904296875,0.0009007453918457031
-0.0660400390625,-0.1602783203125,0.82470703125,0.0009014606475830078
-0.0633544921875,-0.1585693359375,0.822509765625,0.0009012222290039062
-0.0638427734375,-0.1578369140625,0.82568359375,0.0009009838104248047
-0.0653076171875,-0.1617431640625,0.8349609375,0.0009014606475830078
-0.0653076171875,-0.1617431640625,0.8349609375,0.0009007453918457031
-0.0648193359375,-0.1607666015625,0.831298828125,0.0009748935699462891
-0.0677490234375,-0.1600341796875,0.826904296875,0.0009050369262695312
-0.0650634765625,-0.1583251953125,0.827880859375,0.0009028911590576172
-0.0750732421875,-0.1580810546875,0.837646484375,0.0009019374847412109
-0.0704345703125,-0.1605224609375,0.83642578125,0.0009019374847412109
-0.0697021484375,-0.1644287109375,0.828369140625,0.0009012222290039062
-0.0694580078125,-0.1654052734375,0.833740234375,0.0009012222290039062
-0.0650634765625,-0.1614990234375,0.831787109375,0.0009021759033203125
-0.0721435546875,-0.1595458984375,0.829345703125,0.0009007453918457031
-0.0723876953125,-0.1646728515625,0.8349609375,0.0009016990661621094
-0.0723876953125,-0.1646728515625,0.8349609375,0.0009009838104248047
-0.0677490234375,-0.1644287109375,0.8291015625,0.0009021759033203125
-0.0697021484375,-0.1663818359375,0.834228515625,0.0009007453918457031
-0.0687255859375,-0.1627197265625,0.83837890625,0.0009007453918457031
-0.0711669921875,-0.1651611328125,0.836669921875,0.0009019374847412109
-0.0699462890625,-0.1632080078125,0.8388671875,0.0009019374847412109
-0.0697021484375,-0.1632080078125,0.844970703125,0.0009009838104248047
-0.0640869140625,-0.1732177734375,0.833251953125,0.0009012222290039062
-0.0645751953125,-0.1649169921875,0.837890625,0.0009019374847412109
-0.0626220703125,-0.1605224609375,0.838134765625,0.0009007453918457031
-0.0626220703125,-0.1605224609375,0.838134765625,0.0009019374847412109
-0.0626220703125,-0.1566162109375,0.841064453125,0.0009002685546875
-0.0665283203125,-0.1639404296875,0.844482421875,0.0009012222290039062
-0.0670166015625,-0.1683349609375,0.8427734375,0.0009009838104248047
-0.0638427734375,-0.1607666015625,0.8388671875,0.0009019374847412109
-0.0596923828125,-0.1617431640625,0.834716796875,0.0009005069732666016
-0.0606689453125,-0.1612548828125,0.837646484375,0.0009014606475830078
-0.0660400390625,-0.1593017578125,0.830322265625,0.0009009838104248047
-0.0665283203125,-0.1597900390625,0.832763671875,0.0009014606475830078
-0.0679931640625,-0.1610107421875,0.834228515625,0.0009021759033203125
-0.0679931640625,-0.1610107421875,0.834228515625,0.0009009838104248047
-0.0670166015625,-0.1624755859375,0.830810546875,0.0009014606475830078
-0.0648193359375,-0.1602783203125,0.824462890625,0.0009012222290039062
-0.0709228515625,-0.1651611328125,0.83203125,0.0009028911590576172
-0.0662841796875,-0.1636962890625,0.83154296875,0.0008997917175292969
-0.0701904296875,-0.1600341796875,0.837890625,0.0009014606475830078
-0.0721435546875,-0.1617431640625,0.831298828125,0.0009009838104248047
-0.0699462890625,-0.1661376953125,0.8291015625,0.0009014606475830078
-0.0709228515625,-0.1644287109375,0.841796875,0.0009014606475830078
-0.0657958984375,-0.1578369140625,0.833740234375,0.0009007453918457031
-0.0699462890625,-0.1607666015625,0.82861328125,0.0009012222290039062
-0.0699462890625,-0.1607666015625,0.82861328125,0.0009019374847412109
-0.0645751953125,-0.1605224609375,0.829345703125,0.0009009838104248047
-0.0665283203125,-0.1597900390625,0.83642578125,0.0009007453918457031
-0.0677490234375,-0.1605224609375,0.83349609375,0.0009012222290039062
-0.0694580078125,-0.1624755859375,0.834716796875,0.0009012222290039062
-0.0682373046875,-0.1593017578125,0.83349609375,0.0009024143218994141
-0.0682373046875,-0.1610107421875,0.8310546875,0.0009007453918457031
-0.0716552734375,-0.1639404296875,0.82421875,0.0009014606475830078
-0.0738525390625,-0.1595458984375,0.824462890625,0.0009005069732666016
-0.0665283203125,-0.1597900390625,0.838623046875,0.0009016990661621094
-0.0665283203125,-0.1597900390625,0.838623046875,0.0009016990661621094
-0.0706787109375,-0.1583251953125,0.829833984375,0.0009009838104248047
-0.0743408203125,-0.1627197265625,0.836669921875,0.0009014606475830078
-0.0689697265625,-0.1612548828125,0.8369140625,0.0009014606475830078
-0.0684814453125,-0.1602783203125,0.837890625,0.0009016990661621094
-0.0684814453125,-0.1661376953125,0.840576171875,0.0009005069732666016
-0.0706787109375,-0.1639404296875,0.830322265625,0.0009007453918457031
-0.0753173828125,-0.1614990234375,0.83447265625,0.0009014606475830078
-0.0706787109375,-0.1580810546875,0.833984375,0.0009012222290039062
-0.0692138671875,-0.1519775390625,0.827392578125,0.0009021759033203125
-0.0692138671875,-0.1519775390625,0.827392578125,0.0009007453918457031
-0.0689697265625,-0.1573486328125,0.831298828125,0.0009014606475830078
-0.0684814453125,-0.1607666015625,0.83984375,0.0009009838104248047
-0.0650634765625,-0.1585693359375,0.834228515625,0.0009012222290039062
-0.0711669921875,-0.1561279296875,0.832275390625,0.0009007453918457031
-0.0728759765625,-0.1563720703125,0.830810546875,0.0009012222290039062
-0.0704345703125,-0.1573486328125,0.81884765625,0.0009016990661621094
-0.0679931640625,-0.1610107421875,0.827880859375,0.0009016990661621094
-0.0740966796875,-0.1605224609375,0.830322265625,0.0009021759033203125
-0.0711669921875,-0.1571044921875,0.837646484375,0.0009007453918457031
-0.0711669921875,-0.1571044921875,0.837646484375,0.0009009838104248047
-0.0684814453125,-0.1602783203125,0.836669921875,0.0009016990661621094
-0.0728759765625,-0.1588134765625,0.82958984375,0.0009024143218994141
-0.0760498046875,-0.1544189453125,0.8359375,0.0009007453918457031
-0.0728759765625,-0.1571044921875,0.83544921875,0.0009009838104248047
-0.0653076171875,-0.1561279296875,0.836181640625,0.0009009838104248047
-0.0677490234375,-0.1627197265625,0.833740234375,0.0009026527404785156
-0.0701904296875,-0.1566162109375,0.828857421875,0.0009007453918457031
-0.0699462890625,-0.1514892578125,0.827392578125,0.0009014606475830078
-0.0733642578125,-0.1544189453125,0.83154296875,0.0009012222290039062
-0.0667724609375,-0.1593017578125,0.83203125,0.0009016990661621094
-0.0667724609375,-0.1593017578125,0.83203125,0.0009019374847412109
-0.0677490234375,-0.1568603515625,0.8349609375,0.0009002685546875
-0.0701904296875,-0.1529541015625,0.82421875,0.0009005069732666016
-0.0684814453125,-0.1597900390625,0.833740234375,0.0009007453918457031
-0.0675048828125,-0.1588134765625,0.83447265625,0.0009014606475830078
-0.0618896484375,-0.1624755859375,0.829345703125,0.0009009838104248047
-0.0679931640625,-0.1624755859375,0.835693359375,0.0009019374847412109
-0.0687255859375,-0.1646728515625,0.83203125,0.0009016990661621094
-0.0736083984375,-0.1619873046875,0.8271484375,0.0009009838104248047
-0.0723876953125,-0.1605224609375,0.826416015625,0.0009021759033203125
-0.0723876953125,-0.1605224609375,0.826416015625,0.0009007453918457031
-0.0660400390625,-0.1571044921875,0.834228515625,0.0009014606475830078
-0.0687255859375,-0.1644287109375,0.824462890625,0.0009014606475830078
-0.0694580078125,-0.1651611328125,0.8271484375,0.0009016990661621094
-0.0672607421875,-0.1578369140625,0.83447265625,0.0009012222290039062
-0.0743408203125,-0.1580810546875,0.8271484375,0.0009016990661621094
-0.0755615234375,-0.1546630859375,0.829833984375,0.0009014606475830078
-0.0723876953125,-0.1522216796875,0.825927734375,0.0009202957153320312
-0.0762939453125,-0.1588134765625,0.830810546875,0.0009014606475830078
-0.0679931640625,-0.1629638671875,0.83984375,0.0009014606475830078
-0.0679931640625,-0.1629638671875,0.83984375,0.0009007453918457031
-0.0706787109375,-0.1573486328125,0.835693359375,0.0009009838104248047
-0.0731201171875,-0.1583251953125,0.82666015625,0.0009024143218994141
-0.0694580078125,-0.1612548828125,0.83056640625,0.0009012222290039062
-0.0675048828125,-0.1578369140625,0.833740234375,0.0009016990661621094
-0.0679931640625,-0.1590576171875,0.828125,0.0009016990661621094
-0.0721435546875,-0.1641845703125,0.835205078125,0.0009019374847412109
-0.0699462890625,-0.1600341796875,0.829345703125,0.0009005069732666016
-0.0638427734375,-0.1568603515625,0.835693359375,0.0009014606475830078
-0.0672607421875,-0.1583251953125,0.83544921875,0.0009012222290039062
-0.0689697265625,-0.1600341796875,0.835693359375,0.0009016990661621094
-0.0689697265625,-0.1600341796875,0.835693359375,0.0009031295776367188
-0.0709228515625,-0.1597900390625,0.842529296875,0.0009000301361083984
-0.0743408203125,-0.1641845703125,0.83544921875,0.0009007453918457031
-0.0711669921875,-0.1658935546875,0.837646484375,0.0009756088256835938
-0.0670166015625,-0.1671142578125,0.836669921875,0.0009067058563232422
-0.0638427734375,-0.1651611328125,0.844970703125,0.0009012222290039062
-0.0684814453125,-0.1602783203125,0.8369140625,0.0009019374847412109
-0.0706787109375,-0.1639404296875,0.83349609375,0.0009014606475830078
-0.0687255859375,-0.1590576171875,0.83447265625,0.0009160041809082031
-0.0716552734375,-0.1561279296875,0.83056640625,0.0009028911590576172
-0.0675048828125,-0.1558837890625,0.836181640625,0.0009009838104248047
-0.0675048828125,-0.1558837890625,0.836181640625,0.0009012222290039062
-0.0672607421875,-0.1610107421875,0.8349609375,0.0009014606475830078
-0.0765380859375,-0.1593017578125,0.830810546875,0.0009021759033203125
-0.0687255859375,-0.1663818359375,0.830078125,0.0009009838104248047
-0.0672607421875,-0.1629638671875,0.838623046875,0.0009009838104248047
-0.0682373046875,-0.1627197265625,0.84619140625,0.0009016990661621094
-0.0665283203125,-0.1627197265625,0.83984375,0.0009014606475830078
-0.0662841796875,-0.1558837890625,0.836181640625,0.0009007453918457031
-0.0716552734375,-0.1588134765625,0.837890625,0.0009016990661621094
-0.0699462890625,-0.1634521484375,0.829833984375,0.0009014606475830078
-0.0699462890625,-0.1634521484375,0.829833984375,0.0009012222290039062
-0.0716552734375,-0.1658935546875,0.83056640625,0.0009021759033203125
-0.0665283203125,-0.1590576171875,0.83349609375,0.0009005069732666016
-0.0660400390625,-0.1602783203125,0.833251953125,0.0009012222290039062
-0.0638427734375,-0.1607666015625,0.837158203125,0.0009014606475830078
-0.0616455078125,-0.1588134765625,0.833984375,0.0009019374847412109
-0.0662841796875,-0.1639404296875,0.838623046875,0.0009007453918457031
-0.0694580078125,-0.1605224609375,0.83056640625,0.0009014606475830078
-0.0670166015625,-0.1597900390625,0.830078125,0.0009009838104248047
-0.0662841796875,-0.1617431640625,0.828369140625,0.0009012222290039062
-0.0662841796875,-0.1617431640625,0.828369140625,0.0009014606475830078
-0.0701904296875,-0.1688232421875,0.83056640625,0.0009005069732666016
-0.0635986328125,-0.1641845703125,0.8349609375,0.0009012222290039062
-0.0679931640625,-0.1646728515625,0.82666015625,0.0009014606475830078
-0.0738525390625,-0.1619873046875,0.82421875,0.0009014606475830078
-0.0704345703125,-0.1632080078125,0.8330078125,0.0009009838104248047
-0.0638427734375,-0.1612548828125,0.830322265625,0.0009012222290039062
-0.0679931640625,-0.1624755859375,0.829833984375,0.0009014606475830078
-0.0714111328125,-0.1602783203125,0.8271484375,0.0009014606475830078
-0.0655517578125,-0.1600341796875,0.825927734375,0.0009005069732666016
-0.0623779296875,-0.1619873046875,0.827880859375,0.0009014606475830078
-0.0623779296875,-0.1619873046875,0.827880859375,0.0009014606475830078
-0.0631103515625,-0.1563720703125,0.83447265625,0.0009009838104248047
-0.0706787109375,-0.1566162109375,0.83447265625,0.0009021759033203125
-0.0704345703125,-0.1627197265625,0.829345703125,0.0009009838104248047
-0.0667724609375,-0.1671142578125,0.827392578125,0.0009012222290039062
-0.0621337890625,-0.1649169921875,0.835693359375,0.0009016990661621094
-0.0589599609375,-0.1590576171875,0.8330078125,0.0009026527404785156
-0.0689697265625,-0.1561279296875,0.834716796875,0.0009007453918457031
-0.0670166015625,-0.1568603515625,0.83740234375,0.0009014606475830078
-0.0665283203125,-0.1607666015625,0.83740234375,0.0009016990661621094
-0.0665283203125,-0.1607666015625,0.83740234375,0.0009012222290039062
-0.0689697265625,-0.1610107421875,0.837158203125,0.0009021759033203125
-0.0657958984375,-0.1624755859375,0.83056640625,0.0009014606475830078
-0.0621337890625,-0.1622314453125,0.82861328125,0.0009012222290039062
-0.0704345703125,-0.1654052734375,0.834716796875,0.0009019374847412109
-0.0687255859375,-0.1632080078125,0.837646484375,0.0009024143218994141
-0.0638427734375,-0.1641845703125,0.829833984375,0.0009009838104248047
-0.0662841796875,-0.1634521484375,0.826416015625,0.0009016990661621094
-0.0687255859375,-0.1639404296875,0.825927734375,0.0009012222290039062
-0.0670166015625,-0.1602783203125,0.830322265625,0.0009012222290039062
-0.0670166015625,-0.1602783203125,0.830322265625,0.0009024143218994141
-0.0618896484375,-0.1629638671875,0.835693359375,0.0009009838104248047
-0.0623779296875,-0.1583251953125,0.828857421875,0.0009014606475830078
-0.0665283203125,-0.1590576171875,0.835205078125,0.0009012222290039062
-0.0635986328125,-0.1593017578125,0.828125,0.0009019374847412109
-0.0662841796875,-0.1590576171875,0.832763671875,0.0009000301361083984
-0.0672607421875,-0.1578369140625,0.837158203125,0.0009009838104248047
-0.0692138671875,-0.1622314453125,0.83447265625,0.0009012222290039062
-0.0706787109375,-0.1617431640625,0.830810546875,0.0009021759033203125
-0.0662841796875,-0.1600341796875,0.831298828125,0.0009012222290039062
-0.0660400390625,-0.1636962890625,0.833984375,0.0009014606475830078
-0.0660400390625,-0.1636962890625,0.833984375,0.0009014606475830078
-0.0633544921875,-0.1583251953125,0.836181640625,0.0009009838104248047
-0.0626220703125,-0.1571044921875,0.833740234375,0.0009019374847412109
-0.0665283203125,-0.1607666015625,0.831298828125,0.0009012222290039062
-0.0670166015625,-0.1617431640625,0.829833984375,0.0009012222290039062
-0.0648193359375,-0.1583251953125,0.83203125,0.0009014606475830078
-0.0665283203125,-0.1595458984375,0.836181640625,0.0009016990661621094
-0.0701904296875,-0.1600341796875,0.827392578125,0.0009005069732666016
-0.0692138671875,-0.1646728515625,0.83056640625,0.0009016990661621094
-0.0733642578125,-0.1605224609375,0.840087890625,0.0009007453918457031
-0.0733642578125,-0.1605224609375,0.840087890625,0.0009007453918457031
-0.0726318359375,-0.1595458984375,0.828125,0.0009019374847412109
-0.0753173828125,-0.1593017578125,0.826416015625,0.0009002685546875
-0.0750732421875,-0.1622314453125,0.830322265625,0.0009012222290039062
-0.0731201171875,-0.1614990234375,0.829833984375,0.0009014606475830078
-0.0687255859375,-0.1627197265625,0.837890625,0.0009021759033203125
-0.0640869140625,-0.1632080078125,0.836669921875,0.0009000301361083984
-0.0675048828125,-0.1595458984375,0.832275390625,0.0009012222290039062
-0.0687255859375,-0.1583251953125,0.828857421875,0.0009014606475830078
-0.0667724609375,-0.1602783203125,0.834716796875,0.0009126663208007812
-0.0667724609375,-0.1602783203125,0.834716796875,0.0009021759033203125
-0.0692138671875,-0.1578369140625,0.837646484375,0.0009012222290039062
-0.0736083984375,-0.1595458984375,0.8349609375,0.0009014606475830078
-0.0704345703125,-0.1619873046875,0.83642578125,0.0009012222290039062
-0.0670166015625,-0.1597900390625,0.843017578125,0.0009045600891113281
-0.0657958984375,-0.1602783203125,0.843994140625,0.0009014606475830078
-0.0694580078125,-0.1571044921875,0.83447265625,0.0009021759033203125
-0.0692138671875,-0.1629638671875,0.82763671875,0.0009019374847412109
-0.0723876953125,-0.1641845703125,0.8291015625,0.0009021759033203125
-0.0714111328125,-0.1612548828125,0.839111328125,0.0009012222290039062
-0.0714111328125,-0.1612548828125,0.839111328125,0.0009016990661621094
-0.0740966796875,-0.1600341796875,0.833251953125,0.0009012222290039062
-0.0736083984375,-0.1622314453125,0.8330078125,0.0009019374847412109
-0.0704345703125,-0.1649169921875,0.83056640625,0.0009019374847412109
-0.0750732421875,-0.1605224609375,0.833740234375,0.0009014606475830078
-0.0701904296875,-0.1654052734375,0.838134765625,0.0009016990661621094
-0.0689697265625,-0.1583251953125,0.828857421875,0.0009009838104248047
-0.0704345703125,-0.1544189453125,0.829345703125,0.0009021759033203125
-0.0704345703125,-0.1558837890625,0.833251953125,0.0009005069732666016
-0.0692138671875,-0.1583251953125,0.831787109375,0.0009014606475830078
-0.0677490234375,-0.1602783203125,0.83203125,0.0009009838104248047
-0.0677490234375,-0.1602783203125,0.83203125,0.0009014606475830078
-0.0692138671875,-0.1610107421875,0.833740234375,0.0009007453918457031
-0.0770263671875,-0.1612548828125,0.835205078125,0.0009012222290039062
-0.0711669921875,-0.1588134765625,0.831298828125,0.0009014606475830078
-0.0694580078125,-0.1578369140625,0.827880859375,0.0009012222290039062
-0.0643310546875,-0.1541748046875,0.831787109375,0.0009732246398925781
-0.0723876953125,-0.1588134765625,0.838134765625,0.0009036064147949219
-0.0670166015625,-0.1607666015625,0.8408203125,0.0009026527404785156
-0.0626220703125,-0.1617431640625,0.837158203125,0.0009016990661621094
-0.0657958984375,-0.1610107421875,0.841552734375,0.0009026527404785156
-0.0699462890625,-0.1566162109375,0.8388671875,0.0009009838104248047
-0.0699462890625,-0.1566162109375,0.8388671875,0.0009014606475830078
-0.0684814453125,-0.1580810546875,0.834716796875,0.0009007453918457031
-0.0728759765625,-0.1607666015625,0.833984375,0.0009012222290039062
-0.0728759765625,-0.1607666015625,0.828857421875,0.0009024143218994141
-0.0716552734375,-0.1578369140625,0.826904296875,0.0009009838104248047
-0.0697021484375,-0.1622314453125,0.822509765625,0.0009014606475830078
-0.0672607421875,-0.1580810546875,0.835205078125,0.0009014606475830078
-0.0662841796875,-0.1585693359375,0.83154296875,0.0009016990661621094
-0.0716552734375,-0.1627197265625,0.84033203125,0.0009007453918457031
-0.0770263671875,-0.1600341796875,0.836181640625,0.0009012222290039062
-0.0770263671875,-0.1600341796875,0.836181640625,0.0009016990661621094
-0.0745849609375,-0.1634521484375,0.834716796875,0.0009016990661621094
-0.0699462890625,-0.1649169921875,0.835693359375,0.0009016990661621094
-0.0692138671875,-0.1578369140625,0.834228515625,0.0009009838104248047
-0.0701904296875,-0.1602783203125,0.833251953125,0.0009009838104248047
-0.0697021484375,-0.1605224609375,0.8349609375,0.0009014606475830078
-0.0665283203125,-0.1617431640625,0.83837890625,0.0009012222290039062
-0.0697021484375,-0.1588134765625,0.83984375,0.0009009838104248047
-0.0701904296875,-0.1590576171875,0.83642578125,0.0009007453918457031
-0.0697021484375,-0.1636962890625,0.83984375,0.0009016990661621094
-0.0697021484375,-0.1636962890625,0.83984375,0.0009026527404785156
-0.0738525390625,-0.1636962890625,0.828369140625,0.0009007453918457031
-0.0679931640625,-0.1593017578125,0.82861328125,0.0009014606475830078
-0.0697021484375,-0.1605224609375,0.83447265625,0.0009009838104248047
-0.0738525390625,-0.1622314453125,0.83544921875,0.0009009838104248047
-0.0775146484375,-0.1617431640625,0.8291015625,0.0009019374847412109
-0.0738525390625,-0.1612548828125,0.832275390625,0.0009007453918457031
-0.0694580078125,-0.1651611328125,0.837158203125,0.0009019374847412109
-0.0675048828125,-0.1627197265625,0.83447265625,0.0009016990661621094
-0.0694580078125,-0.1561279296875,0.825439453125,0.0009021759033203125
-0.0709228515625,-0.1566162109375,0.829345703125,0.0009012222290039062
-0.0709228515625,-0.1566162109375,0.829345703125,0.0009014606475830078
-0.0711669921875,-0.1593017578125,0.835693359375,0.0009016990661621094
-0.0743408203125,-0.1614990234375,0.836181640625,0.0009016990661621094
-0.0738525390625,-0.1619873046875,0.836181640625,0.0009024143218994141
-0.0633544921875,-0.1590576171875,0.83056640625,0.0009014606475830078
-0.0682373046875,-0.1600341796875,0.832763671875,0.0009012222290039062
-0.0716552734375,-0.1578369140625,0.837158203125,0.0009014606475830078
-0.0733642578125,-0.1571044921875,0.83642578125,0.0009016990661621094
-0.0706787109375,-0.1588134765625,0.840576171875,0.0009007453918457031
-0.0709228515625,-0.1580810546875,0.839599609375,0.0009012222290039062
-0.0709228515625,-0.1580810546875,0.839599609375,0.0009009838104248047
-0.0721435546875,-0.1568603515625,0.835693359375,0.0009016990661621094
-0.0638427734375,-0.1558837890625,0.830078125,0.0009019374847412109
-0.0662841796875,-0.1571044921875,0.837890625,0.0009005069732666016
-0.0714111328125,-0.1590576171875,0.8369140625,0.0009009838104248047
-0.0682373046875,-0.1549072265625,0.835205078125,0.0009009838104248047
-0.0679931640625,-0.1573486328125,0.834228515625,0.0009031295776367188
-0.0694580078125,-0.1573486328125,0.832275390625,0.0009016990661621094
-0.0721435546875,-0.1612548828125,0.831298828125,0.0009014606475830078
-0.0699462890625,-0.1588134765625,0.828125,0.0009014606475830078
-0.0699462890625,-0.1588134765625,0.828125,0.0009019374847412109
-0.0655517578125,-0.1588134765625,0.830810546875,0.0009009838104248047
-0.0670166015625,-0.1605224609375,0.836181640625,0.0009012222290039062
-0.0736083984375,-0.1593017578125,0.832763671875,0.0009019374847412109
-0.0653076171875,-0.1619873046875,0.835693359375,0.0009012222290039062
-0.0645751953125,-0.1654052734375,0.84423828125,0.0009014606475830078
-0.0635986328125,-0.1629638671875,0.834716796875,0.0009016990661621094
-0.0657958984375,-0.1624755859375,0.834716796875,0.0009016990661621094
-0.0657958984375,-0.1654052734375,0.836669921875,0.0009014606475830078
-0.0684814453125,-0.1612548828125,0.839599609375,0.0009009838104248047
-0.0684814453125,-0.1612548828125,0.839599609375,0.0009014606475830078
-0.0650634765625,-0.1602783203125,0.840087890625,0.0009019374847412109
-0.0714111328125,-0.1600341796875,0.829833984375,0.0009014606475830078
-0.0640869140625,-0.1612548828125,0.828125,0.0009014606475830078
-0.0638427734375,-0.1649169921875,0.831787109375,0.0009009838104248047
-0.0684814453125,-0.1605224609375,0.835693359375,0.0009014606475830078
-0.0726318359375,-0.1619873046875,0.828125,0.0009012222290039062
-0.0733642578125,-0.1641845703125,0.834228515625,0.0009007453918457031
-0.0643310546875,-0.1641845703125,0.82958984375,0.0009021759033203125
-0.0650634765625,-0.1580810546875,0.828125,0.0009002685546875
-0.0623779296875,-0.1568603515625,0.84228515625,0.0009007453918457031
-0.0623779296875,-0.1568603515625,0.84228515625,0.0009016990661621094
-0.0650634765625,-0.1602783203125,0.834228515625,0.0009012222290039062
-0.0653076171875,-0.1619873046875,0.83544921875,0.0009019374847412109
-0.0653076171875,-0.1597900390625,0.828369140625,0.0009009838104248047
-0.0716552734375,-0.1600341796875,0.828125,0.0009009838104248047
-0.0704345703125,-0.1629638671875,0.833740234375,0.0009009838104248047
-0.0758056640625,-0.1602783203125,0.828125,0.0009021759033203125
-0.0679931640625,-0.1619873046875,0.83154296875,0.0009009838104248047
-0.0679931640625,-0.1600341796875,0.83984375,0.0009014606475830078
-0.0692138671875,-0.1600341796875,0.841552734375,0.0009009838104248047
-0.0692138671875,-0.1600341796875,0.841552734375,0.0009014606475830078
-0.0692138671875,-0.1619873046875,0.833740234375,0.0009007453918457031
-0.0643310546875,-0.1639404296875,0.835205078125,0.0009014606475830078
-0.0670166015625,-0.1673583984375,0.8359375,0.0009012222290039062
-0.0731201171875,-0.1661376953125,0.840087890625,0.0009007453918457031
-0.0709228515625,-0.1563720703125,0.833984375,0.0009026527404785156
-0.0660400390625,-0.1578369140625,0.832763671875,0.0009005069732666016
-0.0645751953125,-0.1651611328125,0.836669921875,0.0009009838104248047
-0.0631103515625,-0.1641845703125,0.831787109375,0.0009012222290039062
-0.0650634765625,-0.1588134765625,0.826416015625,0.0009021759033203125
-0.0650634765625,-0.1588134765625,0.826416015625,0.0009012222290039062
-0.0606689453125,-0.1634521484375,0.830810546875,0.0009012222290039062
-0.0653076171875,-0.1656494140625,0.837890625,0.0009014606475830078
-0.0665283203125,-0.1595458984375,0.843017578125,0.0009009838104248047
-0.0631103515625,-0.1636962890625,0.834228515625,0.0009016990661621094
-0.0643310546875,-0.1634521484375,0.831298828125,0.0009012222290039062
-0.0667724609375,-0.1632080078125,0.833740234375,0.0009014606475830078
-0.0692138671875,-0.1629638671875,0.832763671875,0.0009014606475830078
-0.0679931640625,-0.1629638671875,0.837646484375,0.0009016990661621094
-0.0682373046875,-0.1571044921875,0.83056640625,0.0009012222290039062
-0.0679931640625,-0.1612548828125,0.837158203125,0.0009014606475830078
-0.0679931640625,-0.1612548828125,0.837158203125,0.0009014606475830078
-0.0697021484375,-0.1571044921875,0.83837890625,0.0009226799011230469
-0.0677490234375,-0.1597900390625,0.824462890625,0.0009031295776367188
-0.0645751953125,-0.1651611328125,0.833740234375,0.0009016990661621094
-0.0657958984375,-0.1624755859375,0.84033203125,0.0009012222290039062
-0.0628662109375,-0.1612548828125,0.83837890625,0.0009016990661621094
-0.0643310546875,-0.1632080078125,0.832275390625,0.0009019374847412109
-0.0665283203125,-0.1593017578125,0.82666015625,0.000978708267211914
-0.0692138671875,-0.1595458984375,0.8271484375,0.0009045600891113281
-0.0650634765625,-0.1593017578125,0.828369140625,0.0009021759033203125
-0.0684814453125,-0.1602783203125,0.828857421875,0.0009021759033203125
-0.0684814453125,-0.1602783203125,0.828857421875,0.0009009838104248047
-0.0699462890625,-0.1602783203125,0.827880859375,0.0009014606475830078
-0.0628662109375,-0.1588134765625,0.8310546875,0.0009012222290039062
-0.0665283203125,-0.1595458984375,0.828857421875,0.0009016990661621094
-0.0689697265625,-0.1595458984375,0.828369140625,0.0009021759033203125
-0.0689697265625,-0.1610107421875,0.82568359375,0.0009007453918457031
-0.0653076171875,-0.1593017578125,0.828125,0.0009012222290039062
-0.0635986328125,-0.1546630859375,0.82666015625,0.0009012222290039062
-0.0706787109375,-0.1629638671875,0.822265625,0.0009021759033203125
-0.0736083984375,-0.1614990234375,0.837646484375,0.0009009838104248047
-0.0736083984375,-0.1614990234375,0.837646484375,0.0009012222290039062
-0.0711669921875,-0.1590576171875,0.834716796875,0.0009014606475830078
-0.0736083984375,-0.1551513671875,0.835693359375,0.0009133815765380859
-0.0736083984375,-0.1607666015625,0.82958984375,0.0009024143218994141
-0.0726318359375,-0.1597900390625,0.830810546875,0.0009014606475830078
-0.0687255859375,-0.1597900390625,0.83203125,0.0009012222290039062
-0.0733642578125,-0.1614990234375,0.825927734375,0.0009009838104248047
-0.0733642578125,-0.1571044921875,0.828125,0.0009021759033203125
-0.0704345703125,-0.1590576171875,0.84033203125,0.0009005069732666016
-0.0704345703125,-0.1602783203125,0.84033203125,0.0009009838104248047
-0.0679931640625,-0.1602783203125,0.833251953125,0.0009007453918457031
-0.0679931640625,-0.1602783203125,0.833251953125,0.0009024143218994141
-0.0716552734375,-0.1585693359375,0.832275390625,0.0009007453918457031
-0.0728759765625,-0.1605224609375,0.837890625,0.0009014606475830078
-0.0701904296875,-0.1619873046875,0.840576171875,0.0009012222290039062
-0.0667724609375,-0.1644287109375,0.83984375,0.0009014606475830078
-0.0648193359375,-0.1641845703125,0.833251953125,0.0009016990661621094
-0.0667724609375,-0.1668701171875,0.835693359375,0.0009007453918457031
-0.0684814453125,-0.1578369140625,0.837646484375,0.0009009838104248047
-0.0660400390625,-0.1605224609375,0.843994140625,0.0009019374847412109
-0.0726318359375,-0.1612548828125,0.83935546875,0.0009019374847412109
-0.0726318359375,-0.1612548828125,0.83935546875,0.0009007453918457031
-0.0743408203125,-0.1651611328125,0.83544921875,0.0009014606475830078
-0.0697021484375,-0.1590576171875,0.820068359375,0.0009012222290039062
-0.0716552734375,-0.1583251953125,0.831298828125,0.0009016990661621094
-0.0677490234375,-0.1580810546875,0.83837890625,0.0009024143218994141
-0.0745849609375,-0.1588134765625,0.841064453125,0.0009009838104248047
-0.0740966796875,-0.1573486328125,0.830810546875,0.0009014606475830078
-0.0753173828125,-0.1580810546875,0.827392578125,0.0009014606475830078
-0.0733642578125,-0.1588134765625,0.828857421875,0.0009019374847412109
-0.0706787109375,-0.1561279296875,0.835693359375,0.0009007453918457031
-0.0706787109375,-0.1561279296875,0.835693359375,0.0009009838104248047
-0.0736083984375,-0.1529541015625,0.837646484375,0.0009012222290039062
-0.0672607421875,-0.1614990234375,0.835693359375,0.0009019374847412109
-0.0672607421875,-0.1619873046875,0.83349609375,0.0009005069732666016
-0.0665283203125,-0.1629638671875,0.833984375,0.0009014606475830078
-0.0670166015625,-0.1600341796875,0.836669921875,0.0009009838104248047
-0.0733642578125,-0.1585693359375,0.8310546875,0.0009009838104248047
-0.0792236328125,-0.1583251953125,0.836181640625,0.0009014606475830078
-0.0692138671875,-0.1610107421875,0.83935546875,0.0009007453918457031
-0.0697021484375,-0.1595458984375,0.83447265625,0.0009014606475830078
-0.0697021484375,-0.1595458984375,0.83447265625,0.0009007453918457031
-0.0711669921875,-0.1644287109375,0.836181640625,0.0009021759033203125
-0.0797119140625,-0.1612548828125,0.838623046875,0.0009007453918457031
-0.0716552734375,-0.1610107421875,0.832763671875,0.0009012222290039062
-0.0728759765625,-0.1600341796875,0.829833984375,0.0009009838104248047
-0.0699462890625,-0.1583251953125,0.834716796875,0.0009007453918457031
-0.0645751953125,-0.1553955078125,0.8349609375,0.0009014606475830078
-0.0740966796875,-0.1575927734375,0.83984375,0.0009007453918457031
-0.0780029296875,-0.1605224609375,0.8330078125,0.0009012222290039062
-0.0750732421875,-0.1656494140625,0.833984375,0.0009014606475830078
-0.0743408203125,-0.1639404296875,0.8291015625,0.0009016990661621094
-0.0743408203125,-0.1639404296875,0.8291015625,0.0009005069732666016
-0.0731201171875,-0.1578369140625,0.834228515625,0.0009007453918457031
-0.0682373046875,-0.1617431640625,0.83837890625,0.0009014606475830078
-0.0692138671875,-0.1612548828125,0.830322265625,0.0009012222290039062
-0.0665283203125,-0.1627197265625,0.832763671875,0.0009019374847412109
-0.0672607421875,-0.1614990234375,0.83203125,0.0009009838104248047
-0.0711669921875,-0.1580810546875,0.834228515625,0.0009009838104248047
-0.0662841796875,-0.1610107421875,0.835693359375,0.0009014606475830078
-0.0738525390625,-0.1607666015625,0.82666015625,0.0009016990661621094
-0.0765380859375,-0.1600341796875,0.82763671875,0.0009007453918457031
-0.0765380859375,-0.1600341796875,0.82763671875,0.0009009838104248047
-0.0706787109375,-0.1588134765625,0.830810546875,0.0009012222290039062
-0.0714111328125,-0.1624755859375,0.83740234375,0.0009016990661621094
-0.0718994140625,-0.1602783203125,0.82958984375,0.0009009838104248047
-0.0726318359375,-0.1622314453125,0.83837890625,0.0009012222290039062
-0.0733642578125,-0.1571044921875,0.84033203125,0.0009012222290039062
-0.0706787109375,-0.1602783203125,0.84228515625,0.0009007453918457031
-0.0662841796875,-0.1607666015625,0.835205078125,0.0009021759033203125
-0.0672607421875,-0.1644287109375,0.830810546875,0.0009007453918457031
-0.0672607421875,-0.1583251953125,0.83349609375,0.0009014606475830078
-0.0672607421875,-0.1583251953125,0.83349609375,0.0009012222290039062
-0.0655517578125,-0.1549072265625,0.828369140625,0.0009016990661621094
-0.0689697265625,-0.1575927734375,0.827392578125,0.0009002685546875
-0.0736083984375,-0.1588134765625,0.828369140625,0.0009000301361083984
-0.0723876953125,-0.1602783203125,0.836181640625,0.0009014606475830078
-0.0728759765625,-0.1605224609375,0.83642578125,0.0009012222290039062
-0.0689697265625,-0.1578369140625,0.82861328125,0.0009021759033203125
-0.0687255859375,-0.1619873046875,0.83447265625,0.0009016990661621094
-0.0699462890625,-0.1656494140625,0.827392578125,0.0009012222290039062
-0.0684814453125,-0.1588134765625,0.82666015625,0.0009016990661621094
-0.0677490234375,-0.1612548828125,0.836181640625,0.0009014606475830078
-0.0677490234375,-0.1612548828125,0.836181640625,0.0009009838104248047
-0.0694580078125,-0.1671142578125,0.837158203125,0.0009012222290039062
-0.0711669921875,-0.1580810546875,0.830810546875,0.0009016990661621094
-0.0670166015625,-0.1549072265625,0.830810546875,0.0009016990661621094
-0.0689697265625,-0.1654052734375,0.828369140625,0.000911712646484375
-0.0738525390625,-0.1593017578125,0.837646484375,0.0009016990661621094
-0.0711669921875,-0.1602783203125,0.84130859375,0.0009009838104248047
-0.0655517578125,-0.1593017578125,0.83642578125,0.0009012222290039062
-0.0709228515625,-0.1649169921875,0.827880859375,0.0009021759033203125
-0.0711669921875,-0.1566162109375,0.833984375,0.0009009838104248047
-0.0711669921875,-0.1566162109375,0.833984375,0.0009007453918457031
-0.0657958984375,-0.1588134765625,0.837890625,0.0009009838104248047
-0.0677490234375,-0.1588134765625,0.839599609375,0.0009019374847412109
-0.0589599609375,-0.1590576171875,0.836181640625,0.0009009838104248047
-0.0631103515625,-0.1639404296875,0.827880859375,0.0009007453918457031
-0.0635986328125,-0.1610107421875,0.830322265625,0.0009014606475830078
-0.0675048828125,-0.1605224609375,0.831298828125,0.0009016990661621094
-0.0694580078125,-0.1607666015625,0.830810546875,0.0009014606475830078
-0.0709228515625,-0.1607666015625,0.833740234375,0.0009005069732666016
-0.0753173828125,-0.1639404296875,0.83154296875,0.0009655952453613281
-0.0657958984375,-0.1641845703125,0.83154296875,0.0009047985076904297
-0.0657958984375,-0.1641845703125,0.83154296875,0.0009031295776367188
-0.0633544921875,-0.1627197265625,0.831298828125,0.0009014606475830078
-0.0679931640625,-0.1649169921875,0.832275390625,0.0009014606475830078
-0.0699462890625,-0.1629638671875,0.827392578125,0.0009016990661621094
-0.0704345703125,-0.1605224609375,0.828369140625,0.0009014606475830078
-0.0704345703125,-0.1632080078125,0.8291015625,0.0009024143218994141
-0.0628662109375,-0.1673583984375,0.834716796875,0.0009005069732666016
-0.0704345703125,-0.1590576171875,0.83837890625,0.0009016990661621094
-0.0657958984375,-0.1590576171875,0.83447265625,0.0009012222290039062
-0.0653076171875,-0.1585693359375,0.843017578125,0.0009021759033203125
-0.0653076171875,-0.1585693359375,0.843017578125,0.0009005069732666016
-0.0697021484375,-0.1588134765625,0.834228515625,0.0009009838104248047
-0.0672607421875,-0.1600341796875,0.8291015625,0.0009012222290039062
-0.0670166015625,-0.1636962890625,0.828125,0.0009019374847412109
-0.0623779296875,-0.1602783203125,0.828857421875,0.0009000301361083984
-0.0621337890625,-0.1617431640625,0.83349609375,0.0009014606475830078
-0.0643310546875,-0.1612548828125,0.84033203125,0.0009012222290039062
-0.0665283203125,-0.1612548828125,0.83935546875,0.0009014606475830078
-0.0609130859375,-0.1632080078125,0.8310546875,0.0009014606475830078
-0.0640869140625,-0.1614990234375,0.839111328125,0.0009007453918457031
-0.0660400390625,-0.1585693359375,0.83642578125,0.0009012222290039062
-0.0660400390625,-0.1585693359375,0.83642578125,0.0009009838104248047
-0.0721435546875,-0.1600341796875,0.834228515625,0.0009016990661621094
-0.0687255859375,-0.1666259765625,0.827392578125,0.0009007453918457031
-0.0697021484375,-0.1632080078125,0.8359375,0.0009014606475830078
-0.0670166015625,-0.1624755859375,0.83056640625,0.0009005069732666016
-0.0633544921875,-0.1668701171875,0.826171875,0.0009009838104248047
-0.0660400390625,-0.1661376953125,0.828857421875,0.0009014606475830078
-0.0650634765625,-0.1624755859375,0.831787109375,0.0009012222290039062
-0.0697021484375,-0.1627197265625,0.83154296875,0.0009009838104248047
-0.0689697265625,-0.1605224609375,0.831787109375,0.0009009838104248047
-0.0689697265625,-0.1605224609375,0.831787109375,0.0009019374847412109
-0.0628662109375,-0.1622314453125,0.8408203125,0.0009009838104248047
-0.0631103515625,-0.1583251953125,0.844970703125,0.0009009838104248047
-0.0672607421875,-0.1619873046875,0.833740234375,0.0009012222290039062
-0.0684814453125,-0.1663818359375,0.839599609375,0.0009181499481201172
-0.0743408203125,-0.1597900390625,0.831298828125,0.0009038448333740234
-0.0682373046875,-0.1590576171875,0.836181640625,0.0009012222290039062
-0.0716552734375,-0.1619873046875,0.82958984375,0.0009016990661621094
-0.0723876953125,-0.1666259765625,0.8291015625,0.0009016990661621094
-0.0633544921875,-0.1602783203125,0.829833984375,0.0009014606475830078
-0.0633544921875,-0.1602783203125,0.829833984375,0.0009009838104248047
-0.0694580078125,-0.1614990234375,0.836669921875,0.0009014606475830078
-0.0667724609375,-0.1673583984375,0.833984375,0.0009009838104248047
-0.0679931640625,-0.1636962890625,0.832763671875,0.0009005069732666016
-0.0709228515625,-0.1600341796875,0.831787109375,0.0009019374847412109
-0.0731201171875,-0.1585693359375,0.834716796875,0.0009016990661621094
-0.0689697265625,-0.1600341796875,0.828369140625,0.0009009838104248047
-0.0743408203125,-0.1583251953125,0.826416015625,0.0009016990661621094
-0.0718994140625,-0.1573486328125,0.828369140625,0.0009016990661621094
-0.0711669921875,-0.1661376953125,0.83154296875,0.0009012222290039062
-0.0684814453125,-0.1668701171875,0.829345703125,0.0009009838104248047
-0.0684814453125,-0.1668701171875,0.829345703125,0.0009012222290039062
-0.0711669921875,-0.1646728515625,0.829345703125,0.0009014606475830078
-0.0706787109375,-0.1571044921875,0.830078125,0.0009014606475830078
-0.0736083984375,-0.1575927734375,0.8310546875,0.0009009838104248047
-0.0716552734375,-0.1575927734375,0.826904296875,0.0009014606475830078
-0.0660400390625,-0.1595458984375,0.82763671875,0.0009009838104248047
-0.0731201171875,-0.1593017578125,0.833984375,0.0009021759033203125
-0.0721435546875,-0.1590576171875,0.841552734375,0.0009000301361083984
-0.0767822265625,-0.1556396484375,0.833740234375,0.0009012222290039062
-0.0733642578125,-0.1578369140625,0.832275390625,0.0009014606475830078
-0.0733642578125,-0.1578369140625,0.832275390625,0.0009019374847412109
-0.0728759765625,-0.1605224609375,0.833740234375,0.0009012222290039062
-0.0706787109375,-0.1558837890625,0.83642578125,0.0009012222290039062
-0.0684814453125,-0.1610107421875,0.829833984375,0.0009012222290039062
-0.0657958984375,-0.1629638671875,0.825927734375,0.0009019374847412109
-0.0701904296875,-0.1639404296875,0.837158203125,0.0009009838104248047
-0.0697021484375,-0.1610107421875,0.83447265625,0.0009014606475830078
-0.0684814453125,-0.1632080078125,0.832275390625,0.0009014606475830078
-0.0660400390625,-0.1600341796875,0.83056640625,0.0009009838104248047
-0.0753173828125,-0.1578369140625,0.82958984375,0.0009021759033203125
-0.0753173828125,-0.1578369140625,0.82958984375,0.0009007453918457031
-0.0714111328125,-0.1583251953125,0.825439453125,0.0009009838104248047
-0.0679931640625,-0.1590576171875,0.827392578125,0.0009009838104248047
-0.0660400390625,-0.1553955078125,0.82763671875,0.0009026527404785156
-0.0706787109375,-0.1583251953125,0.829833984375,0.0009007453918457031
-0.0701904296875,-0.1634521484375,0.829345703125,0.0009012222290039062
-0.0721435546875,-0.1590576171875,0.8291015625,0.0009016990661621094
-0.0684814453125,-0.1546630859375,0.837646484375,0.0009012222290039062
-0.0679931640625,-0.1583251953125,0.829833984375,0.0009014606475830078
-0.0709228515625,-0.1624755859375,0.825439453125,0.0009007453918457031
-0.0709228515625,-0.1624755859375,0.825439453125,0.0009012222290039062
-0.0721435546875,-0.1649169921875,0.827392578125,0.0009014606475830078
-0.0677490234375,-0.1627197265625,0.839599609375,0.0009019374847412109
-0.0706787109375,-0.1629638671875,0.8349609375,0.0009009838104248047
-0.0718994140625,-0.1610107421875,0.830810546875,0.0009012222290039062
-0.0738525390625,-0.1624755859375,0.830078125,0.0009014606475830078
-0.0694580078125,-0.1563720703125,0.829345703125,0.0009005069732666016
-0.0711669921875,-0.1546630859375,0.829833984375,0.0009021759033203125
-0.0748291015625,-0.1556396484375,0.826171875,0.0009012222290039062
-0.0743408203125,-0.1580810546875,0.8369140625,0.0009014606475830078
-0.0743408203125,-0.1605224609375,0.837158203125,0.0009014606475830078
-0.0743408203125,-0.1605224609375,0.837158203125,0.0009019374847412109
-0.0692138671875,-0.1566162109375,0.8369140625,0.0009009838104248047
-0.0697021484375,-0.1566162109375,0.839111328125,0.0009012222290039062
-0.0704345703125,-0.1600341796875,0.8408203125,0.0009014606475830078
-0.0670166015625,-0.1573486328125,0.83544921875,0.0009019374847412109
-0.0677490234375,-0.1612548828125,0.83642578125,0.0009009838104248047
-0.0743408203125,-0.1585693359375,0.827392578125,0.0009016990661621094
-0.0772705078125,-0.1597900390625,0.825927734375,0.0009016990661621094
-0.0701904296875,-0.1546630859375,0.832275390625,0.0009009838104248047
-0.0589599609375,-0.1551513671875,0.830322265625,0.0009016990661621094
-0.0589599609375,-0.1551513671875,0.830322265625,0.0009005069732666016
-0.0621337890625,-0.1571044921875,0.827392578125,0.0009009838104248047
-0.0701904296875,-0.1563720703125,0.832763671875,0.0009014606475830078
-0.0718994140625,-0.1563720703125,0.835693359375,0.0009019374847412109
-0.0667724609375,-0.1607666015625,0.835693359375,0.0009007453918457031
-0.0684814453125,-0.1614990234375,0.837646484375,0.0009012222290039062
-0.0745849609375,-0.1614990234375,0.83935546875,0.0009014606475830078
-0.0750732421875,-0.1639404296875,0.8349609375,0.0009005069732666016
-0.0753173828125,-0.1597900390625,0.830078125,0.0009019374847412109
-0.0753173828125,-0.1571044921875,0.831787109375,0.0009002685546875
-0.0740966796875,-0.1590576171875,0.836669921875,0.0009853839874267578
-0.0740966796875,-0.1590576171875,0.836669921875,0.0009055137634277344
-0.0701904296875,-0.1595458984375,0.8369140625,0.0009028911590576172
-0.0679931640625,-0.1571044921875,0.833251953125,0.0009014606475830078
-0.0692138671875,-0.1588134765625,0.832275390625,0.0009014606475830078
-0.0743408203125,-0.1563720703125,0.837646484375,0.0009009838104248047
-0.0721435546875,-0.1614990234375,0.83935546875,0.0009024143218994141
-0.0675048828125,-0.1563720703125,0.8330078125,0.0009007453918457031
-0.0689697265625,-0.1561279296875,0.829833984375,0.0009012222290039062
-0.0660400390625,-0.1551513671875,0.836669921875,0.0009021759033203125
-0.0675048828125,-0.1546630859375,0.833251953125,0.0009014606475830078
-0.0675048828125,-0.1546630859375,0.833251953125,0.0009019374847412109
-0.0699462890625,-0.1561279296875,0.825439453125,0.0009002685546875
-0.0711669921875,-0.1585693359375,0.83740234375,0.0009012222290039062
-0.0740966796875,-0.1646728515625,0.837158203125,0.0009016990661621094
-0.0650634765625,-0.1607666015625,0.833984375,0.0009024143218994141
-0.0684814453125,-0.1573486328125,0.830322265625,0.0009009838104248047
-0.0709228515625,-0.1597900390625,0.831787109375,0.0009014606475830078
-0.0677490234375,-0.1568603515625,0.837646484375,0.0009016990661621094
-0.0643310546875,-0.1624755859375,0.8388671875,0.0009009838104248047
-0.0655517578125,-0.1646728515625,0.84375,0.0009021759033203125
-0.0704345703125,-0.1632080078125,0.836181640625,0.0009002685546875
-0.0704345703125,-0.1632080078125,0.836181640625,0.0009012222290039062
-0.0733642578125,-0.1600341796875,0.831787109375,0.0009012222290039062
-0.0728759765625,-0.1605224609375,0.838134765625,0.0009019374847412109
-0.0736083984375,-0.1658935546875,0.82861328125,0.0009064674377441406
-0.0687255859375,-0.1661376953125,0.83447265625,0.0009007453918457031
-0.0701904296875,-0.1651611328125,0.84033203125,0.0009012222290039062
-0.0677490234375,-0.1595458984375,0.84130859375,0.0009014606475830078
-0.0645751953125,-0.1597900390625,0.83349609375,0.0009026527404785156
-0.0655517578125,-0.1614990234375,0.835693359375,0.0009016990661621094
-0.0638427734375,-0.1571044921875,0.8271484375,0.0009016990661621094
-0.0638427734375,-0.1571044921875,0.8271484375,0.0009014606475830078
-0.0660400390625,-0.1624755859375,0.8408203125,0.0009019374847412109
-0.0660400390625,-0.1610107421875,0.839599609375,0.0008997917175292969
-0.0675048828125,-0.1607666015625,0.84130859375,0.0009014606475830078
-0.0743408203125,-0.1558837890625,0.832763671875,0.0009009838104248047
-0.0706787109375,-0.1646728515625,0.829345703125,0.0009021759033203125
-0.0667724609375,-0.1617431640625,0.833251953125,0.0009012222290039062
-0.0687255859375,-0.1573486328125,0.829833984375,0.0009014606475830078
-0.0758056640625,-0.1571044921875,0.829833984375,0.0009016990661621094
-0.0716552734375,-0.1646728515625,0.828369140625,0.0009009838104248047
-0.0716552734375,-0.1646728515625,0.828369140625,0.0009021759033203125
-0.0689697265625,-0.1629638671875,0.83203125,0.0009002685546875
-0.0689697265625,-0.1575927734375,0.824462890625,0.0009007453918457031
-0.0694580078125,-0.1544189453125,0.834716796875,0.0009012222290039062
-0.0667724609375,-0.1602783203125,0.837890625,0.0009019374847412109
-0.0716552734375,-0.1595458984375,0.8349609375,0.0009000301361083984
-0.0677490234375,-0.1619873046875,0.83349609375,0.0009005069732666016
-0.0665283203125,-0.1634521484375,0.833251953125,0.0009012222290039062
-0.0657958984375,-0.1600341796875,0.836669921875,0.0009012222290039062
-0.0616455078125,-0.1595458984375,0.83349609375,0.0009021759033203125
-0.0677490234375,-0.1610107421875,0.82958984375,0.0009007453918457031
-0.0677490234375,-0.1610107421875,0.82958984375,0.0009014606475830078
-0.0675048828125,-0.1571044921875,0.833251953125,0.0009007453918457031
-0.0670166015625,-0.1575927734375,0.83203125,0.0009016990661621094
-0.0694580078125,-0.1600341796875,0.8310546875,0.0009000301361083984
-0.0711669921875,-0.1612548828125,0.8310546875,0.0009007453918457031
-0.0675048828125,-0.1617431640625,0.8310546875,0.0009014606475830078
-0.0692138671875,-0.1627197265625,0.826904296875,0.0009162425994873047
-0.0675048828125,-0.1614990234375,0.832275390625,0.0009019374847412109
-0.0687255859375,-0.1617431640625,0.830810546875,0.0009016990661621094
-0.0672607421875,-0.1610107421875,0.82861328125,0.0009014606475830078
-0.0672607421875,-0.1610107421875,0.82861328125,0.0009007453918457031
-0.0687255859375,-0.1593017578125,0.828857421875,0.0009021759033203125
-0.0677490234375,-0.1624755859375,0.831787109375,0.0009009838104248047
-0.0621337890625,-0.1614990234375,0.833251953125,0.0009016990661621094
-0.0623779296875,-0.1573486328125,0.8369140625,0.0009012222290039062
-0.0675048828125,-0.1566162109375,0.835205078125,0.0009019374847412109
-0.0699462890625,-0.1575927734375,0.826171875,0.0009007453918457031
-0.0677490234375,-0.1597900390625,0.836181640625,0.0009009838104248047
-0.0631103515625,-0.1600341796875,0.83056640625,0.0009012222290039062
-0.0655517578125,-0.1634521484375,0.828857421875,0.0009012222290039062
-0.0655517578125,-0.1634521484375,0.828857421875,0.0009021759033203125
-0.0623779296875,-0.1607666015625,0.830078125,0.0009009838104248047
-0.0736083984375,-0.1590576171875,0.837890625,0.0009009838104248047
-0.0682373046875,-0.1585693359375,0.832275390625,0.0009009838104248047
-0.0653076171875,-0.1573486328125,0.831787109375,0.0009016990661621094
-0.0638427734375,-0.1588134765625,0.827392578125,0.0009007453918457031
-0.0704345703125,-0.1597900390625,0.826416015625,0.0009009838104248047
-0.0675048828125,-0.1561279296875,0.833251953125,0.0009016990661621094
-0.0682373046875,-0.1597900390625,0.835205078125,0.0009012222290039062
-0.0631103515625,-0.1580810546875,0.828857421875,0.0009021759033203125
-0.0633544921875,-0.1541748046875,0.828125,0.0009007453918457031
-0.0633544921875,-0.1541748046875,0.828125,0.0009009838104248047
-0.0635986328125,-0.1600341796875,0.83203125,0.0009005069732666016
-0.0706787109375,-0.1612548828125,0.828857421875,0.0009016990661621094
-0.0704345703125,-0.1590576171875,0.830078125,0.0009005069732666016
-0.0714111328125,-0.1583251953125,0.840087890625,0.0009007453918457031
-0.0643310546875,-0.1597900390625,0.833251953125,0.0009014606475830078
-0.0653076171875,-0.1602783203125,0.83740234375,0.0009021759033203125
-0.0628662109375,-0.1588134765625,0.833251953125,0.0009007453918457031
-0.0660400390625,-0.1610107421875,0.837158203125,0.0009012222290039062
-0.0650634765625,-0.1641845703125,0.835205078125,0.0009021759033203125
-0.0650634765625,-0.1641845703125,0.835205078125,0.0009012222290039062
-0.0667724609375,-0.1651611328125,0.8349609375,0.0009014606475830078
-0.0684814453125,-0.1600341796875,0.835693359375,0.0009005069732666016
-0.0653076171875,-0.1644287109375,0.836181640625,0.0009012222290039062
-0.0687255859375,-0.1663818359375,0.833251953125,0.0009014606475830078
-0.0657958984375,-0.1676025390625,0.828369140625,0.0009021759033203125
-0.0643310546875,-0.1602783203125,0.832275390625,0.0009007453918457031
-0.0631103515625,-0.1622314453125,0.835693359375,0.0009009838104248047
-0.0675048828125,-0.1627197265625,0.83740234375,0.0009016990661621094
-0.0635986328125,-0.1590576171875,0.834228515625,0.0009012222290039062
-0.0635986328125,-0.1590576171875,0.834228515625,0.0009021759033203125
-0.0635986328125,-0.1590576171875,0.8388671875,0.0009009838104248047
-0.0665283203125,-0.1646728515625,0.843017578125,0.0009009838104248047
-0.0665283203125,-0.1654052734375,0.829833984375,0.0009012222290039062
-0.0697021484375,-0.1588134765625,0.835205078125,0.0009016990661621094
-0.0731201171875,-0.1619873046875,0.8359375,0.0009014606475830078
-0.0697021484375,-0.1632080078125,0.833251953125,0.0009009838104248047
-0.0660400390625,-0.1597900390625,0.83349609375,0.0009012222290039062
-0.0672607421875,-0.1636962890625,0.83056640625,0.0009012222290039062
-0.0679931640625,-0.1600341796875,0.822998046875,0.0009016990661621094
-0.0679931640625,-0.1600341796875,0.822998046875,0.0009005069732666016
-0.0692138671875,-0.1627197265625,0.82421875,0.0009012222290039062
-0.0687255859375,-0.1644287109375,0.830322265625,0.0009653568267822266
-0.0723876953125,-0.1593017578125,0.83837890625,0.0009047985076904297
-0.0692138671875,-0.1593017578125,0.830810546875,0.0009019374847412109
-0.0679931640625,-0.1568603515625,0.828857421875,0.0009016990661621094
-0.0675048828125,-0.1578369140625,0.832763671875,0.0009021759033203125
-0.0692138671875,-0.1619873046875,0.835693359375,0.0009021759033203125
-0.0699462890625,-0.1649169921875,0.840576171875,0.0009007453918457031
-0.0640869140625,-0.1561279296875,0.835205078125,0.0009016990661621094
-0.0684814453125,-0.1571044921875,0.83251953125,0.0009016990661621094
-0.0684814453125,-0.1571044921875,0.83251953125,0.0009014606475830078
-0.0726318359375,-0.1597900390625,0.836669921875,0.0009024143218994141
-0.0784912109375,-0.1641845703125,0.833251953125,0.0009005069732666016
-0.0755615234375,-0.1617431640625,0.83740234375,0.0009019374847412109
-0.0694580078125,-0.1629638671875,0.828857421875,0.0009012222290039062
-0.0706787109375,-0.1641845703125,0.836181640625,0.0009021759033203125
-0.0682373046875,-0.1590576171875,0.83154296875,0.0009012222290039062
-0.0682373046875,-0.1563720703125,0.82763671875,0.0009014606475830078
-0.0667724609375,-0.1622314453125,0.827880859375,0.0009016990661621094
-0.0745849609375,-0.1617431640625,0.826416015625,0.0009009838104248047
-0.0748291015625,-0.1619873046875,0.837646484375,0.0009021759033203125
-0.0748291015625,-0.1619873046875,0.837646484375,0.0009002685546875
-0.0718994140625,-0.1617431640625,0.83740234375,0.0009012222290039062
-0.0679931640625,-0.1612548828125,0.84619140625,0.0009014606475830078
-0.0726318359375,-0.1571044921875,0.8408203125,0.0009021759033203125
-0.0706787109375,-0.1617431640625,0.83544921875,0.0009005069732666016
-0.0689697265625,-0.1595458984375,0.823974609375,0.0009016990661621094
-0.0684814453125,-0.1632080078125,0.824462890625,0.0009016990661621094
-0.0640869140625,-0.1617431640625,0.822021484375,0.0009016990661621094
-0.0660400390625,-0.1612548828125,0.83740234375,0.0009007453918457031
-0.0689697265625,-0.1612548828125,0.83837890625,0.0009012222290039062
-0.0689697265625,-0.1612548828125,0.83837890625,0.0009014606475830078
-0.0670166015625,-0.1597900390625,0.834716796875,0.0009009838104248047
-0.0704345703125,-0.1639404296875,0.834716796875,0.0009019374847412109
-0.0728759765625,-0.1639404296875,0.833740234375,0.0009009838104248047
-0.0706787109375,-0.1634521484375,0.834716796875,0.0009014606475830078
-0.0758056640625,-0.1605224609375,0.835205078125,0.0009007453918457031
-0.0677490234375,-0.1605224609375,0.83740234375,0.0009021759033203125
-0.0635986328125,-0.1597900390625,0.829833984375,0.0009005069732666016
-0.0699462890625,-0.1566162109375,0.8359375,0.0009014606475830078
-0.0662841796875,-0.1617431640625,0.829345703125,0.0009007453918457031
-0.0662841796875,-0.1617431640625,0.829345703125,0.0009009838104248047
-0.0714111328125,-0.1597900390625,0.8330078125,0.0009024143218994141
-0.0721435546875,-0.1602783203125,0.82763671875,0.0009007453918457031
-0.0672607421875,-0.1602783203125,0.83544921875,0.0009014606475830078
-0.0653076171875,-0.1607666015625,0.83447265625,0.0009009838104248047
-0.0675048828125,-0.1595458984375,0.831787109375,0.0009016990661621094
-0.0670166015625,-0.1590576171875,0.835693359375,0.0009007453918457031
-0.0670166015625,-0.1607666015625,0.832763671875,0.0009014606475830078
-0.0655517578125,-0.1585693359375,0.833984375,0.0009009838104248047
-0.0711669921875,-0.1605224609375,0.8330078125,0.0009007453918457031
-0.0679931640625,-0.1658935546875,0.8349609375,0.0009019374847412109
-0.0679931640625,-0.1658935546875,0.8349609375,0.0009005069732666016
-0.0675048828125,-0.1619873046875,0.840576171875,0.0009007453918457031
-0.0672607421875,-0.1617431640625,0.839599609375,0.0009009838104248047
-0.0665283203125,-0.1588134765625,0.8369140625,0.0009019374847412109
-0.0699462890625,-0.1607666015625,0.83251953125,0.0009005069732666016
-0.0699462890625,-0.1558837890625,0.833984375,0.0009012222290039062
-0.0672607421875,-0.1641845703125,0.834228515625,0.0009002685546875
-0.0684814453125,-0.1602783203125,0.840576171875,0.0009016990661621094
-0.0697021484375,-0.1549072265625,0.8369140625,0.0009012222290039062
-0.0714111328125,-0.1602783203125,0.83642578125,0.0009009838104248047
-0.0714111328125,-0.1602783203125,0.83642578125,0.0009014606475830078
-0.0643310546875,-0.1602783203125,0.833984375,0.0009007453918457031
-0.0675048828125,-0.1666259765625,0.832275390625,0.0009021759033203125
-0.0701904296875,-0.1644287109375,0.828369140625,0.0009007453918457031
-0.0665283203125,-0.1580810546875,0.83154296875,0.0009016990661621094
-0.0721435546875,-0.1595458984375,0.82568359375,0.0009014606475830078
-0.0660400390625,-0.1624755859375,0.8232421875,0.0009019374847412109
-0.0738525390625,-0.1619873046875,0.8310546875,0.0009007453918457031
-0.0745849609375,-0.1622314453125,0.829833984375,0.0009012222290039062
-0.0697021484375,-0.1605224609375,0.8349609375,0.0009012222290039062
-0.0697021484375,-0.1605224609375,0.8349609375,0.0009009838104248047
-0.0694580078125,-0.1578369140625,0.828369140625,0.0009019374847412109
-0.0697021484375,-0.1558837890625,0.82373046875,0.0009012222290039062
-0.0711669921875,-0.1593017578125,0.833984375,0.0009009838104248047
-0.0684814453125,-0.1580810546875,0.83984375,0.0009012222290039062
-0.0684814453125,-0.1588134765625,0.837158203125,0.0009014606475830078
-0.0701904296875,-0.1585693359375,0.8291015625,0.0009012222290039062
-0.0631103515625,-0.1551513671875,0.83642578125,0.0009005069732666016
-0.0623779296875,-0.1597900390625,0.838134765625,0.0009016990661621094
-0.0635986328125,-0.1602783203125,0.837646484375,0.0009176731109619141
-0.0616455078125,-0.1597900390625,0.8359375,0.0009024143218994141
-0.0616455078125,-0.1597900390625,0.8359375,0.0009012222290039062
-0.0638427734375,-0.1597900390625,0.83447265625,0.0009007453918457031
-0.0665283203125,-0.1632080078125,0.83349609375,0.0009012222290039062
-0.0675048828125,-0.1656494140625,0.82958984375,0.0009016990661621094
-0.0699462890625,-0.1624755859375,0.8349609375,0.0008997917175292969
-0.0618896484375,-0.1649169921875,0.829345703125,0.0009009838104248047
-0.0677490234375,-0.1593017578125,0.839111328125,0.0009016990661621094
-0.0697021484375,-0.1629638671875,0.84033203125,0.0009021759033203125
-0.0662841796875,-0.1644287109375,0.833740234375,0.0009007453918457031
-0.0623779296875,-0.1632080078125,0.8330078125,0.0009016990661621094
-0.0623779296875,-0.1632080078125,0.8330078125,0.0009009838104248047
-0.0662841796875,-0.1593017578125,0.833251953125,0.0009009838104248047
-0.0675048828125,-0.1614990234375,0.822509765625,0.0009021759033203125
-0.0743408203125,-0.1578369140625,0.8251953125,0.0009007453918457031
-0.0699462890625,-0.1610107421875,0.8359375,0.0009012222290039062
-0.0679931640625,-0.1614990234375,0.8310546875,0.0009009838104248047
-0.0638427734375,-0.1619873046875,0.8369140625,0.0009019374847412109
-0.0692138671875,-0.1639404296875,0.835693359375,0.0009005069732666016
-0.0704345703125,-0.1607666015625,0.8427734375,0.0009009838104248047
-0.0706787109375,-0.1588134765625,0.8408203125,0.0009009838104248047
-0.0706787109375,-0.1588134765625,0.8408203125,0.0009014606475830078
-0.0692138671875,-0.1575927734375,0.837158203125,0.0009019374847412109
-0.0682373046875,-0.1617431640625,0.837890625,0.0009007453918457031
-0.0638427734375,-0.1632080078125,0.837646484375,0.0009009838104248047
-0.0670166015625,-0.1602783203125,0.8369140625,0.0009016990661621094
-0.0665283203125,-0.1578369140625,0.828857421875,0.0009016990661621094
-0.0653076171875,-0.1602783203125,0.8330078125,0.0009005069732666016
-0.0648193359375,-0.1593017578125,0.83447265625,0.0009012222290039062
-0.0665283203125,-0.1593017578125,0.843505859375,0.0009012222290039062
-0.0733642578125,-0.1622314453125,0.835205078125,0.0009016990661621094
-0.0733642578125,-0.1622314453125,0.835205078125,0.0009005069732666016
-0.0758056640625,-0.1593017578125,0.830810546875,0.0009014606475830078
-0.0677490234375,-0.1595458984375,0.8271484375,0.0009009838104248047
-0.0689697265625,-0.1666259765625,0.82861328125,0.0009012222290039062
-0.0655517578125,-0.1561279296875,0.84033203125,0.0009713172912597656
-0.0609130859375,-0.1566162109375,0.841064453125,0.0009043216705322266
-0.0692138671875,-0.1617431640625,0.8427734375,0.0009026527404785156
-0.0716552734375,-0.1588134765625,0.829345703125,0.0009021759033203125
-0.0672607421875,-0.1646728515625,0.830810546875,0.0009021759033203125
-0.0665283203125,-0.1600341796875,0.8359375,0.0009005069732666016
-0.0687255859375,-0.1573486328125,0.83642578125,0.0009014606475830078
-0.0687255859375,-0.1573486328125,0.83642578125,0.0009014606475830078
-0.0672607421875,-0.1617431640625,0.825927734375,0.0009009838104248047
-0.0711669921875,-0.1588134765625,0.83056640625,0.0009024143218994141
-0.0721435546875,-0.1585693359375,0.835205078125,0.0009009838104248047
-0.0721435546875,-0.1644287109375,0.83349609375,0.0009019374847412109
-0.0670166015625,-0.1641845703125,0.835205078125,0.0009009838104248047
-0.0684814453125,-0.1578369140625,0.83544921875,0.0009021759033203125
-0.0655517578125,-0.1580810546875,0.841552734375,0.0009002685546875
-0.0618896484375,-0.1593017578125,0.831298828125,0.0009007453918457031
-0.0672607421875,-0.1658935546875,0.830810546875,0.0009012222290039062
-0.0655517578125,-0.1680908203125,0.831298828125,0.0009131431579589844
-0.0655517578125,-0.1680908203125,0.831298828125,0.0009024143218994141
-0.0716552734375,-0.1646728515625,0.83544921875,0.0009009838104248047
-0.0677490234375,-0.1627197265625,0.836181640625,0.0009012222290039062
-0.0677490234375,-0.1624755859375,0.82568359375,0.0009007453918457031
-0.0638427734375,-0.1575927734375,0.82373046875,0.0009016990661621094
-0.0723876953125,-0.1522216796875,0.82861328125,0.0009007453918457031
-0.0711669921875,-0.1568603515625,0.8359375,0.0009016990661621094
-0.0692138671875,-0.1571044921875,0.830078125,0.0009012222290039062
-0.0670166015625,-0.1593017578125,0.84033203125,0.0009019374847412109
-0.0721435546875,-0.1578369140625,0.83935546875,0.0009007453918457031
-0.0721435546875,-0.1578369140625,0.83935546875,0.0009005069732666016
-0.0723876953125,-0.1573486328125,0.834716796875,0.0009009838104248047
-0.0665283203125,-0.1610107421875,0.836669921875,0.0009014606475830078
-0.0657958984375,-0.1617431640625,0.839111328125,0.0009021759033203125
-0.0692138671875,-0.1593017578125,0.836669921875,0.0009007453918457031
-0.0711669921875,-0.1551513671875,0.826904296875,0.0009016990661621094
-0.0753173828125,-0.1632080078125,0.82763671875,0.0009014606475830078
-0.0733642578125,-0.1663818359375,0.830322265625,0.0009019374847412109
-0.0682373046875,-0.1585693359375,0.83154296875,0.0009007453918457031
-0.0709228515625,-0.1583251953125,0.837890625,0.0009014606475830078
-0.0709228515625,-0.1583251953125,0.837890625,0.0009012222290039062
-0.0684814453125,-0.1610107421875,0.83544921875,0.0009012222290039062
-0.0755615234375,-0.1600341796875,0.83056640625,0.0009014606475830078
-0.0704345703125,-0.1602783203125,0.823486328125,0.0009007453918457031
-0.0738525390625,-0.1617431640625,0.83447265625,0.0009012222290039062
-0.0745849609375,-0.1646728515625,0.8349609375,0.0009007453918457031
-0.0738525390625,-0.1629638671875,0.828369140625,0.0009014606475830078
-0.0692138671875,-0.1649169921875,0.828369140625,0.0009009838104248047
-0.0726318359375,-0.1629638671875,0.826171875,0.0009012222290039062
-0.0731201171875,-0.1632080078125,0.833740234375,0.0009014606475830078
-0.0723876953125,-0.1610107421875,0.828857421875,0.0009024143218994141
-0.0723876953125,-0.1610107421875,0.828857421875,0.0009009838104248047
-0.0709228515625,-0.1593017578125,0.833984375,0.0009005069732666016
-0.0704345703125,-0.1646728515625,0.835205078125,0.0009012222290039062
-0.0726318359375,-0.1661376953125,0.8427734375,0.0009012222290039062
-0.0731201171875,-0.1602783203125,0.824951171875,0.0009019374847412109
-0.0694580078125,-0.1602783203125,0.828125,0.0009009838104248047
-0.0731201171875,-0.1641845703125,0.826904296875,0.0009012222290039062
-0.0716552734375,-0.1588134765625,0.837158203125,0.0009019374847412109
-0.0648193359375,-0.1563720703125,0.83447265625,0.0009019374847412109
-0.0718994140625,-0.1563720703125,0.837646484375,0.0009002685546875
-0.0718994140625,-0.1563720703125,0.837646484375,0.0009012222290039062
-0.0728759765625,-0.1588134765625,0.84033203125,0.0009012222290039062
-0.0687255859375,-0.1563720703125,0.8291015625,0.0009012222290039062
-0.0714111328125,-0.1634521484375,0.838623046875,0.0009016990661621094
-0.0692138671875,-0.1656494140625,0.83642578125,0.0009016990661621094
-0.0755615234375,-0.1600341796875,0.832763671875,0.0009016990661621094
-0.0714111328125,-0.1614990234375,0.8330078125,0.0009016990661621094
