emg_0,emg_1,emg_2,emg_3,emg_4,acc_x,acc_y,acc_z,gyro_x,gyro_y,gyro_z,dt
-0.5267175572519084,-3.618320610687023,-0.09923664122137404,0.22478556632995605
0.35877862595419846,-3.519083969465649,0.061068702290076333,0.003106355667114258
0.549618320610687,-3.4198473282442747,0.030534351145038167,0.000993490219116211
0.4198473282442748,-3.381679389312977,-0.06870229007633588,0.0009963512420654297
0.17557251908396945,-3.427480916030534,0.12213740458015267,0.0010025501251220703
-0.22137404580152673,-3.3435114503816794,-0.007633587786259542,0.0038361549377441406
-0.007633587786259542,-3.687022900763359,0.0916030534351145,0.001079559326171875
0.2366412213740458,-3.854961832061069,0.1450381679389313,0.0010685920715332031
0.3816793893129771,-3.6564885496183206,0.20610687022900764,0.0010128021240234375
0.2595419847328244,-3.519083969465649,0.08396946564885496,0.0009982585906982422
0.03816793893129771,-3.4656488549618323,-0.04580152671755725,0.0009961128234863281
-0.11450381679389313,-3.366412213740458,-0.061068702290076333,0.0009944438934326172
-0.09923664122137404,-3.4122137404580153,0.015267175572519083,0.0009913444519042969
-0.06870229007633588,-3.4656488549618323,-0.1297709923664122,0.001046895980834961
-0.03816793893129771,-3.50381679389313,-0.16793893129770993,0.0011248588562011719
0.1297709923664122,-3.5343511450381677,-0.0916030534351145,0.0011143684387207031
0.2595419847328244,-3.6564885496183206,0.10687022900763359,0.0011119842529296875
0.1297709923664122,-3.717557251908397,0.007633587786259542,0.001161336898803711
0.022900763358778626,-3.66412213740458,0.04580152671755725,0.0010221004486083984
-0.10687022900763359,-3.5267175572519083,0.08396946564885496,0.0009760856628417969
-0.16793893129770993,-3.4427480916030535,0.061068702290076333,0.0010139942169189453
-0.10687022900763359,-3.4732824427480917,0.022900763358778626,0.000995635986328125
0.03816793893129771,-3.4580152671755724,0.06870229007633588,0.0009970664978027344
0.05343511450381679,-3.427480916030534,0.17557251908396945,0.0009872913360595703
0.0916030534351145,-3.4198473282442747,0.061068702290076333,0.0009913444519042969
0.022900763358778626,-3.404580152671756,-0.05343511450381679,0.0009906291961669922
-0.07633587786259542,-3.450381679389313,-0.0916030534351145,0.001004934310913086
-0.04580152671755725,-3.480916030534351,0.10687022900763359,0.0009794235229492188
0.007633587786259542,-3.6946564885496183,0.03816793893129771,0.0010862350463867188
-0.12213740458015267,-3.6259541984732824,0.12213740458015267,0.001054525375366211
-0.022900763358778626,-3.5419847328244276,0.11450381679389313,0.000985860824584961
0.022900763358778626,-3.5419847328244276,0.007633587786259542,0.0009789466857910156
0.015267175572519083,-3.4580152671755724,0.007633587786259542,0.0010466575622558594
0.007633587786259542,-3.4122137404580153,0.061068702290076333,0.000993490219116211
-0.08396946564885496,-3.404580152671756,0.11450381679389313,0.0010044574737548828
-0.007633587786259542,-3.4732824427480917,0.05343511450381679,0.0010416507720947266
0.06870229007633588,-3.6412213740458017,-0.061068702290076333,0.0010256767272949219
0.16793893129770993,-3.648854961832061,-0.007633587786259542,0.0009541511535644531
0.16793893129770993,-3.6946564885496183,0.0,0.0009708404541015625
0.1984732824427481,-3.6412213740458017,0.007633587786259542,0.0009303092956542969
0.0916030534351145,-3.519083969465649,0.022900763358778626,0.0009696483612060547
0.0,-3.4580152671755724,-0.07633587786259542,0.0010161399841308594
0.0,-3.480916030534351,-0.16793893129770993,0.0009648799896240234
-0.03816793893129771,-3.4427480916030535,-0.08396946564885496,0.001020669937133789
0.022900763358778626,-3.4198473282442747,0.007633587786259542,0.0010008811950683594
0.0916030534351145,-3.435114503816794,0.11450381679389313,0.0010223388671875
0.04580152671755725,-3.549618320610687,0.06870229007633588,0.0010287761688232422
0.05343511450381679,-3.6106870229007635,0.06870229007633588,0.0010013580322265625
0.007633587786259542,-3.4885496183206106,0.015267175572519083,0.0009641647338867188
-0.03816793893129771,-3.435114503816794,0.08396946564885496,0.0009334087371826172
-0.06870229007633588,-3.450381679389313,0.06870229007633588,0.0009262561798095703
-0.11450381679389313,-3.5267175572519083,0.10687022900763359,0.0009276866912841797
-0.1450381679389313,-3.4732824427480917,0.09923664122137404,0.001008749008178711
-0.1297709923664122,-3.4732824427480917,0.03816793893129771,0.0009317398071289062
-0.12213740458015267,-3.404580152671756,0.030534351145038167,0.0009319782257080078
-0.05343511450381679,-3.5877862595419847,0.05343511450381679,0.0009250640869140625
0.015267175572519083,-3.6717557251908395,0.0916030534351145,0.0009312629699707031
0.015267175572519083,-3.49618320610687,0.05343511450381679,0.0009334087371826172
-0.061068702290076333,-3.2748091603053435,0.030534351145038167,0.0009243488311767578
0.007633587786259542,-3.3206106870229006,0.015267175572519083,0.0009224414825439453
0.0,-3.351145038167939,0.06870229007633588,0.0009207725524902344
0.04580152671755725,-3.4427480916030535,0.26717557251908397,0.0009222030639648438
0.10687022900763359,-3.480916030534351,0.2595419847328244,0.0009245872497558594
0.04580152671755725,-3.519083969465649,0.11450381679389313,0.0009202957153320312
0.015267175572519083,-3.66412213740458,0.061068702290076333,0.0009253025054931641
-0.030534351145038167,-3.7404580152671754,0.03816793893129771,0.000934600830078125
0.007633587786259542,-3.6717557251908395,0.1984732824427481,0.0009312629699707031
-0.11450381679389313,-3.5877862595419847,0.1450381679389313,0.0009229183197021484
-0.04580152671755725,-3.4427480916030535,0.061068702290076333,0.0009942054748535156
0.16793893129770993,-3.3435114503816794,0.16030534351145037,0.0010607242584228516
0.07633587786259542,-3.4198473282442747,0.0916030534351145,0.0010440349578857422
0.12213740458015267,-3.5267175572519083,0.08396946564885496,0.0010187625885009766
0.03816793893129771,-3.50381679389313,0.0,0.001033782958984375
-0.030534351145038167,-3.519083969465649,0.061068702290076333,0.000986337661743164
0.007633587786259542,-3.6030534351145036,0.13740458015267176,0.0009741783142089844
-0.0916030534351145,-3.6106870229007635,0.13740458015267176,0.0010919570922851562
-0.0916030534351145,-3.5419847328244276,0.21374045801526717,0.0010879039764404297
-0.09923664122137404,-3.3206106870229006,-0.022900763358778626,0.0009417533874511719
-0.12213740458015267,-3.2290076335877864,0.03816793893129771,0.000911712646484375
-0.15267175572519084,-3.213740458015267,0.1297709923664122,0.0009243488311767578
-0.2595419847328244,-3.450381679389313,0.183206106870229,0.0009377002716064453
-0.12213740458015267,-3.4732824427480917,-0.03816793893129771,0.0009441375732421875
-0.07633587786259542,-3.5572519083969465,-0.09923664122137404,0.0009138584136962891
0.0,-3.633587786259542,-0.061068702290076333,0.0009064674377441406
0.07633587786259542,-3.564885496183206,-0.05343511450381679,0.0009028911590576172
-0.022900763358778626,-3.366412213740458,0.061068702290076333,0.0009088516235351562
-0.09923664122137404,-3.435114503816794,-0.20610687022900764,0.0009942054748535156
-0.15267175572519084,-3.519083969465649,0.0,0.001024007797241211
-0.03816793893129771,-3.5343511450381677,0.015267175572519083,0.0010173320770263672
0.061068702290076333,-3.4580152671755724,0.007633587786259542,0.0010402202606201172
0.09923664122137404,-3.549618320610687,0.06870229007633588,0.00104522705078125
0.04580152671755725,-3.5267175572519083,0.22137404580152673,0.0010385513305664062
-0.03816793893129771,-3.5801526717557253,0.1984732824427481,0.0010051727294921875
0.015267175572519083,-3.50381679389313,0.030534351145038167,0.0010077953338623047
0.10687022900763359,-3.618320610687023,0.16793893129770993,0.0010001659393310547
0.030534351145038167,-3.5343511450381677,0.04580152671755725,0.0009834766387939453
-0.061068702290076333,-3.49618320610687,-0.1297709923664122,0.00095367431640625
-0.0916030534351145,-3.5267175572519083,-0.11450381679389313,0.0009551048278808594
0.015267175572519083,-3.404580152671756,-0.022900763358778626,0.0010731220245361328
0.022900763358778626,-3.3053435114503817,-0.06870229007633588,0.0009877681732177734
0.015267175572519083,-3.4580152671755724,-0.05343511450381679,0.001168966293334961
0.05343511450381679,-3.4580152671755724,-0.030534351145038167,0.0010113716125488281
0.007633587786259542,-3.4885496183206106,-0.06870229007633588,0.0009589195251464844
0.007633587786259542,-3.3969465648854964,0.04580152671755725,0.0009329319000244141
-0.030534351145038167,-3.3282442748091605,0.08396946564885496,0.0009264945983886719
0.07633587786259542,-3.3740458015267176,-0.04580152671755725,0.0009434223175048828
0.11450381679389313,-3.5572519083969465,0.061068702290076333,0.00102996826171875
0.04580152671755725,-3.564885496183206,0.007633587786259542,0.0011208057403564453
0.007633587786259542,-3.5267175572519083,0.061068702290076333,0.0009520053863525391
0.0,-3.5877862595419847,0.007633587786259542,0.0009281635284423828
0.1297709923664122,-3.435114503816794,0.03816793893129771,0.0009467601776123047
0.1984732824427481,-3.49618320610687,0.007633587786259542,0.0009336471557617188
0.0916030534351145,-3.50381679389313,-0.1297709923664122,0.0010013580322265625
0.09923664122137404,-3.618320610687023,-0.0916030534351145,0.0009310245513916016
0.0916030534351145,-3.5801526717557253,0.0,0.0009291172027587891
0.15267175572519084,-3.5114503816793894,-0.05343511450381679,0.0009353160858154297
0.1984732824427481,-3.4885496183206106,-0.16793893129770993,0.0009379386901855469
0.061068702290076333,-3.381679389312977,0.007633587786259542,0.001100301742553711
-0.007633587786259542,-3.572519083969466,0.0,0.0009508132934570312
-0.1297709923664122,-3.7480916030534353,0.03816793893129771,0.0009386539459228516
-0.061068702290076333,-3.6259541984732824,0.015267175572519083,0.0009319782257080078
0.022900763358778626,-3.50381679389313,0.11450381679389313,0.0009868144989013672
0.03816793893129771,-3.5572519083969465,0.12213740458015267,0.0009758472442626953
0.08396946564885496,-3.564885496183206,-0.007633587786259542,0.0009717941284179688
-0.007633587786259542,-3.5114503816793894,-0.13740458015267176,0.0010561943054199219
-0.07633587786259542,-3.3282442748091605,-0.15267175572519084,0.001115560531616211
0.061068702290076333,-3.4427480916030535,0.061068702290076333,0.001047372817993164
0.09923664122137404,-3.4732824427480917,0.183206106870229,0.0010426044464111328
0.09923664122137404,-3.33587786259542,-0.007633587786259542,0.0010409355163574219
0.08396946564885496,-3.4122137404580153,-0.0916030534351145,0.001039743423461914
0.08396946564885496,-3.49618320610687,0.015267175572519083,0.0010333061218261719
0.03816793893129771,-3.435114503816794,0.007633587786259542,0.0010128021240234375
-0.007633587786259542,-3.4427480916030535,-0.04580152671755725,0.0011146068572998047
0.022900763358778626,-3.3282442748091605,-0.10687022900763359,0.0010919570922851562
0.11450381679389313,-3.381679389312977,-0.13740458015267176,0.0010366439819335938
0.08396946564885496,-3.4580152671755724,-0.07633587786259542,0.0010771751403808594
0.06870229007633588,-3.435114503816794,-0.015267175572519083,0.0010330677032470703
-0.03816793893129771,-3.49618320610687,0.09923664122137404,0.001005411148071289
-0.022900763358778626,-3.66412213740458,0.022900763358778626,0.0009682178497314453
0.04580152671755725,-3.49618320610687,0.0916030534351145,0.0009522438049316406
0.0916030534351145,-3.3969465648854964,0.015267175572519083,0.0009472370147705078
0.09923664122137404,-3.427480916030534,-0.06870229007633588,0.0010733604431152344
-0.022900763358778626,-3.4122137404580153,-0.0916030534351145,0.0009889602661132812
-0.04580152671755725,-3.5419847328244276,-0.06870229007633588,0.0009572505950927734
-0.09923664122137404,-3.5343511450381677,0.030534351145038167,0.000942230224609375
-0.04580152671755725,-3.427480916030534,-0.061068702290076333,0.0009527206420898438
-0.04580152671755725,-3.4656488549618323,0.007633587786259542,0.0009593963623046875
-0.09923664122137404,-3.3282442748091605,0.0,0.0009326934814453125
-0.16030534351145037,-3.3893129770992365,0.030534351145038167,0.0009250640869140625
-0.12213740458015267,-3.3969465648854964,0.022900763358778626,0.0009326934814453125
0.022900763358778626,-3.3282442748091605,0.12213740458015267,0.0010080337524414062
0.007633587786259542,-3.3969465648854964,0.015267175572519083,0.0011146068572998047
-0.1297709923664122,-3.572519083969466,0.007633587786259542,0.0009915828704833984
-0.1984732824427481,-3.5267175572519083,0.0,0.0010616779327392578
0.022900763358778626,-3.49618320610687,-0.030534351145038167,0.0010945796966552734
0.1297709923664122,-3.4580152671755724,0.13740458015267176,0.0009717941284179688
0.13740458015267176,-3.549618320610687,0.05343511450381679,0.0009496212005615234
0.061068702290076333,-3.519083969465649,0.022900763358778626,0.0009484291076660156
-0.015267175572519083,-3.3893129770992365,-0.03816793893129771,0.0009567737579345703
-0.04580152671755725,-3.312977099236641,-0.04580152671755725,0.0009365081787109375
0.030534351145038167,-3.3282442748091605,0.06870229007633588,0.000934600830078125
0.0,-3.312977099236641,0.007633587786259542,0.0009324550628662109
-0.06870229007633588,-3.480916030534351,0.11450381679389313,0.0010328292846679688
0.0,-3.549618320610687,0.06870229007633588,0.0009748935699462891
0.030534351145038167,-3.4656488549618323,0.0916030534351145,0.0009312629699707031
-0.007633587786259542,-3.564885496183206,0.06870229007633588,0.0009312629699707031
0.022900763358778626,-3.4885496183206106,0.0916030534351145,0.0009362697601318359
0.0,-3.3206106870229006,0.16793893129770993,0.0009276866912841797
0.007633587786259542,-3.3435114503816794,0.15267175572519084,0.0009236335754394531
-0.17557251908396945,-3.404580152671756,0.11450381679389313,0.0009310245513916016
-0.05343511450381679,-3.4656488549618323,-0.0916030534351145,0.0009326934814453125
0.03816793893129771,-3.4732824427480917,0.1297709923664122,0.0011751651763916016
-0.007633587786259542,-3.549618320610687,0.06870229007633588,0.0010957717895507812
0.007633587786259542,-3.50381679389313,-0.03816793893129771,0.001077413558959961
-0.0916030534351145,-3.480916030534351,0.030534351145038167,0.0010673999786376953
-0.03816793893129771,-3.5419847328244276,0.0916030534351145,0.0009834766387939453
0.0,-3.5267175572519083,0.1984732824427481,0.0009682178497314453
-0.007633587786259542,-3.5114503816793894,0.06870229007633588,0.0009591579437255859
0.0,-3.5343511450381677,0.007633587786259542,0.0009682178497314453
-0.07633587786259542,-3.687022900763359,-0.007633587786259542,0.0009696483612060547
-0.030534351145038167,-3.595419847328244,0.15267175572519084,0.0009527206420898438
0.022900763358778626,-3.3206106870229006,0.16030534351145037,0.001016378402709961
0.015267175572519083,-3.312977099236641,0.0,0.0010352134704589844
-0.022900763358778626,-3.50381679389313,0.007633587786259542,0.0009920597076416016
-0.007633587786259542,-3.480916030534351,-0.09923664122137404,0.0010225772857666016
0.0,-3.427480916030534,-0.1297709923664122,0.0010221004486083984
-0.030534351145038167,-3.4198473282442747,0.022900763358778626,0.0010113716125488281
0.03816793893129771,-3.50381679389313,0.11450381679389313,0.0009980201721191406
0.09923664122137404,-3.572519083969466,0.29770992366412213,0.001016855239868164
-0.015267175572519083,-3.6106870229007635,0.19083969465648856,0.0010094642639160156
-0.1450381679389313,-3.4198473282442747,0.0,0.001026153564453125
0.015267175572519083,-3.4656488549618323,0.05343511450381679,0.001033782958984375
0.10687022900763359,-3.33587786259542,0.007633587786259542,0.0009758472442626953
0.06870229007633588,-3.366412213740458,0.007633587786259542,0.0010399818420410156
-0.061068702290076333,-3.5114503816793894,0.1297709923664122,0.0010504722595214844
-0.11450381679389313,-3.3969465648854964,0.12213740458015267,0.0010018348693847656
-0.0916030534351145,-3.3282442748091605,0.007633587786259542,0.0010275840759277344
-0.022900763358778626,-3.4580152671755724,0.030534351145038167,0.0010318756103515625
0.10687022900763359,-3.5419847328244276,0.183206106870229,0.0010287761688232422
0.1297709923664122,-3.4427480916030535,0.061068702290076333,0.00103759765625
0.0,-3.381679389312977,0.04580152671755725,0.0010046958923339844
-0.061068702290076333,-3.427480916030534,-0.015267175572519083,0.0011363029479980469
-0.05343511450381679,-3.549618320610687,-0.022900763358778626,0.0009579658508300781
0.09923664122137404,-3.6412213740458017,-0.007633587786259542,0.0009095668792724609
0.17557251908396945,-3.5572519083969465,-0.030534351145038167,0.000904083251953125
0.0916030534351145,-3.3969465648854964,0.16793893129770993,0.0009045600891113281
-0.022900763358778626,-3.3587786259541983,0.31297709923664124,0.0009014606475830078
-0.06870229007633588,-3.4427480916030535,0.35877862595419846,0.0009012222290039062
0.05343511450381679,-3.3053435114503817,0.12213740458015267,0.0009012222290039062
0.09923664122137404,-3.3587786259541983,-0.08396946564885496,0.0009007453918457031
-0.007633587786259542,-3.50381679389313,-0.13740458015267176,0.0009248256683349609
-0.015267175572519083,-3.5572519083969465,-0.12213740458015267,0.0009047985076904297
0.06870229007633588,-3.5267175572519083,-0.11450381679389313,0.0009031295776367188
0.10687022900763359,-3.4122137404580153,-0.1450381679389313,0.0009026527404785156
0.030534351145038167,-3.3893129770992365,-0.12213740458015267,0.0009033679962158203
-0.08396946564885496,-3.2977099236641223,0.022900763358778626,0.0009019374847412109
-0.030534351145038167,-3.4122137404580153,0.15267175572519084,0.0009024143218994141
0.030534351145038167,-3.5877862595419847,0.2595419847328244,0.0009024143218994141
0.061068702290076333,-3.618320610687023,0.11450381679389313,0.0009012222290039062
0.0,-3.5801526717557253,0.061068702290076333,0.0009055137634277344
0.007633587786259542,-3.648854961832061,-0.030534351145038167,0.0009002685546875
0.1297709923664122,-3.450381679389313,0.1297709923664122,0.0009024143218994141
0.12213740458015267,-3.4885496183206106,0.015267175572519083,0.0009016990661621094
0.10687022900763359,-3.5801526717557253,0.015267175572519083,0.0009031295776367188
-0.030534351145038167,-3.7022900763358777,0.007633587786259542,0.0009009838104248047
-0.11450381679389313,-3.7480916030534353,0.06870229007633588,0.0009026527404785156
0.007633587786259542,-3.435114503816794,0.19083969465648856,0.0009028911590576172
0.0916030534351145,-3.183206106870229,0.3282442748091603,0.0009031295776367188
0.03816793893129771,-3.366412213740458,0.26717557251908397,0.0009019374847412109
-0.030534351145038167,-3.5343511450381677,0.13740458015267176,0.0009024143218994141
-0.03816793893129771,-3.5877862595419847,0.04580152671755725,0.0009026527404785156
-0.015267175572519083,-3.5877862595419847,-0.1297709923664122,0.0009016990661621094
0.015267175572519083,-3.480916030534351,-0.22137404580152673,0.0009031295776367188
0.04580152671755725,-3.549618320610687,-0.07633587786259542,0.0009033679962158203
0.007633587786259542,-3.480916030534351,0.22900763358778625,0.0009026527404785156
-0.05343511450381679,-3.519083969465649,0.1984732824427481,0.0009024143218994141
0.0,-3.5419847328244276,0.04580152671755725,0.0009036064147949219
-0.022900763358778626,-3.4732824427480917,-0.183206106870229,0.000904083251953125
-0.07633587786259542,-3.435114503816794,-0.13740458015267176,0.0009028911590576172
-0.05343511450381679,-3.549618320610687,-0.05343511450381679,0.0009026527404785156
-0.07633587786259542,-3.5419847328244276,0.04580152671755725,0.0009019374847412109
0.061068702290076333,-3.50381679389313,0.0,0.0009028911590576172
0.10687022900763359,-3.549618320610687,0.16793893129770993,0.0009002685546875
0.15267175572519084,-3.5572519083969465,-0.11450381679389313,0.0009026527404785156
0.16793893129770993,-3.572519083969466,-0.09923664122137404,0.0009024143218994141
0.03816793893129771,-3.6030534351145036,-0.03816793893129771,0.0009028911590576172
-0.06870229007633588,-3.519083969465649,-0.022900763358778626,0.0009012222290039062
-0.030534351145038167,-3.6030534351145036,-0.09923664122137404,0.0009021759033203125
-0.05343511450381679,-3.572519083969466,-0.03816793893129771,0.0009024143218994141
-0.03816793893129771,-3.5343511450381677,0.04580152671755725,0.000919342041015625
-0.03816793893129771,-3.5572519083969465,0.15267175572519084,0.0009043216705322266
-0.022900763358778626,-3.3740458015267176,0.022900763358778626,0.0009026527404785156
-0.03816793893129771,-3.282442748091603,0.0,0.0009026527404785156
-0.061068702290076333,-3.5267175572519083,-0.1297709923664122,0.0009000301361083984
-0.0916030534351145,-3.6564885496183206,-0.11450381679389313,0.0009036064147949219
-0.06870229007633588,-3.5267175572519083,0.007633587786259542,0.0009016990661621094
-0.11450381679389313,-3.366412213740458,0.09923664122137404,0.0009016990661621094
0.007633587786259542,-3.366412213740458,0.061068702290076333,0.0009019374847412109
-0.05343511450381679,-3.3969465648854964,0.007633587786259542,0.0009045600891113281
-0.16793893129770993,-3.49618320610687,0.04580152671755725,0.0009021759033203125
-0.17557251908396945,-3.5267175572519083,0.0,0.0009024143218994141
-0.022900763358778626,-3.4885496183206106,-0.12213740458015267,0.0009007453918457031
-0.03816793893129771,-3.687022900763359,-0.2595419847328244,0.0009024143218994141
-0.08396946564885496,-3.7099236641221376,-0.05343511450381679,0.0009026527404785156
-0.03816793893129771,-3.50381679389313,-0.030534351145038167,0.0009534358978271484
0.030534351145038167,-3.3206106870229006,0.13740458015267176,0.0009021759033203125
0.007633587786259542,-3.381679389312977,-0.007633587786259542,0.0009028911590576172
-0.03816793893129771,-3.49618320610687,-0.07633587786259542,0.0009031295776367188
0.0,-3.6030534351145036,-0.16793893129770993,0.0009012222290039062
0.030534351145038167,-3.6106870229007635,-0.15267175572519084,0.0009007453918457031
0.08396946564885496,-3.564885496183206,-0.1297709923664122,0.0009019374847412109
0.007633587786259542,-3.366412213740458,-0.007633587786259542,0.0009019374847412109
-0.12213740458015267,-3.33587786259542,0.06870229007633588,0.0009031295776367188
-0.16030534351145037,-3.450381679389313,0.13740458015267176,0.0009024143218994141
-0.05343511450381679,-3.687022900763359,0.022900763358778626,0.0009026527404785156
0.0,-3.687022900763359,-0.1297709923664122,0.0009021759033203125
-0.03816793893129771,-3.519083969465649,-0.183206106870229,0.0009005069732666016
-0.13740458015267176,-3.404580152671756,-0.19083969465648856,0.0009009838104248047
-0.0916030534351145,-3.2977099236641223,-0.183206106870229,0.0009033679962158203
0.007633587786259542,-3.4122137404580153,-0.007633587786259542,0.0009021759033203125
0.08396946564885496,-3.435114503816794,0.0916030534351145,0.0009036064147949219
-0.03816793893129771,-3.5343511450381677,-0.015267175572519083,0.0009012222290039062
-0.06870229007633588,-3.6564885496183206,-0.03816793893129771,0.0009024143218994141
-0.030534351145038167,-3.7099236641221376,-0.061068702290076333,0.0009024143218994141
0.1450381679389313,-3.5267175572519083,-0.17557251908396945,0.0009026527404785156
0.10687022900763359,-3.4198473282442747,-0.1297709923664122,0.0009021759033203125
-0.04580152671755725,-3.4656488549618323,0.061068702290076333,0.0009019374847412109
-0.007633587786259542,-3.4580152671755724,0.03816793893129771,0.0009031295776367188
-0.030534351145038167,-3.4656488549618323,0.015267175572519083,0.0009024143218994141
-0.030534351145038167,-3.4656488549618323,0.0,0.0009031295776367188
-0.16793893129770993,-3.4885496183206106,0.04580152671755725,0.0008995532989501953
-0.09923664122137404,-3.595419847328244,0.04580152671755725,0.0009016990661621094
0.0,-3.5267175572519083,0.061068702290076333,0.0009014606475830078
0.030534351145038167,-3.549618320610687,-0.03816793893129771,0.0009005069732666016
0.007633587786259542,-3.3969465648854964,0.007633587786259542,0.0009036064147949219
0.022900763358778626,-3.404580152671756,-0.12213740458015267,0.0009012222290039062
-0.022900763358778626,-3.5572519083969465,-0.12213740458015267,0.0009028911590576172
0.0,-3.5267175572519083,0.007633587786259542,0.0009026527404785156
0.03816793893129771,-3.5267175572519083,0.07633587786259542,0.0009007453918457031
0.03816793893129771,-3.5343511450381677,0.007633587786259542,0.0009005069732666016
0.05343511450381679,-3.4885496183206106,-0.04580152671755725,0.0009016990661621094
0.0916030534351145,-3.3740458015267176,-0.19083969465648856,0.0010235309600830078
0.08396946564885496,-3.366412213740458,-0.0916030534351145,0.0009150505065917969
0.0,-3.427480916030534,0.007633587786259542,0.0009074211120605469
-0.022900763358778626,-3.4580152671755724,0.05343511450381679,0.0009043216705322266
0.015267175572519083,-3.480916030534351,0.03816793893129771,0.0009086132049560547
-0.007633587786259542,-3.435114503816794,-0.061068702290076333,0.0009026527404785156
0.0,-3.3893129770992365,0.022900763358778626,0.0009047985076904297
0.06870229007633588,-3.49618320610687,-0.05343511450381679,0.0008993148803710938
0.12213740458015267,-3.5267175572519083,0.022900763358778626,0.0009174346923828125
0.10687022900763359,-3.5419847328244276,0.1297709923664122,0.0009176731109619141
0.04580152671755725,-3.3282442748091605,0.1297709923664122,0.0009038448333740234
-0.0916030534351145,-3.3053435114503817,0.015267175572519083,0.0009195804595947266
-0.1984732824427481,-3.3206106870229006,-0.0916030534351145,0.0009107589721679688
-0.12213740458015267,-3.4656488549618323,-0.13740458015267176,0.0009129047393798828
0.05343511450381679,-3.50381679389313,-0.05343511450381679,0.0009808540344238281
0.0,-3.49618320610687,-0.16030534351145037,0.0009315013885498047
-0.03816793893129771,-3.4885496183206106,-0.007633587786259542,0.0009164810180664062
-0.061068702290076333,-3.3969465648854964,-0.04580152671755725,0.0009083747863769531
-0.10687022900763359,-3.3740458015267176,0.03816793893129771,0.0009243488311767578
-0.022900763358778626,-3.5419847328244276,0.04580152671755725,0.0009210109710693359
0.030534351145038167,-3.5267175572519083,0.022900763358778626,0.0009052753448486328
-0.061068702290076333,-3.427480916030534,0.04580152671755725,0.0009026527404785156
0.015267175572519083,-3.381679389312977,0.03816793893129771,0.0009229183197021484
0.05343511450381679,-3.4198473282442747,0.030534351145038167,0.0009019374847412109
0.0,-3.49618320610687,0.061068702290076333,0.0009014606475830078
0.03816793893129771,-3.6106870229007635,-0.061068702290076333,0.0009009838104248047
0.03816793893129771,-3.5801526717557253,-0.030534351145038167,0.0009028911590576172
-0.0916030534351145,-3.381679389312977,0.022900763358778626,0.0009024143218994141
-0.11450381679389313,-3.381679389312977,0.0,0.0009052753448486328
0.0,-3.4732824427480917,0.0,0.0009007453918457031
-0.04580152671755725,-3.4427480916030535,-0.07633587786259542,0.0008978843688964844
-0.12213740458015267,-3.49618320610687,0.12213740458015267,0.0009028911590576172
-0.13740458015267176,-3.4427480916030535,0.21374045801526717,0.0009028911590576172
-0.03816793893129771,-3.3893129770992365,0.25190839694656486,0.0009033679962158203
0.007633587786259542,-3.3587786259541983,0.061068702290076333,0.0009024143218994141
0.11450381679389313,-3.312977099236641,0.22137404580152673,0.0009021759033203125
0.10687022900763359,-3.213740458015267,0.4198473282442748,0.0009026527404785156
0.07633587786259542,-3.3969465648854964,0.2595419847328244,0.0009014606475830078
0.061068702290076333,-3.564885496183206,0.05343511450381679,0.0009016990661621094
0.06870229007633588,-3.6717557251908395,-0.007633587786259542,0.0009019374847412109
0.11450381679389313,-3.6946564885496183,-0.0916030534351145,0.0009019374847412109
0.07633587786259542,-3.50381679389313,-0.015267175572519083,0.0009055137634277344
-0.05343511450381679,-3.381679389312977,0.007633587786259542,0.0009026527404785156
-0.061068702290076333,-3.427480916030534,0.007633587786259542,0.0009024143218994141
-0.04580152671755725,-3.5114503816793894,-0.015267175572519083,0.0009028911590576172
0.022900763358778626,-3.5343511450381677,-0.09923664122137404,0.0009031295776367188
0.04580152671755725,-3.4732824427480917,0.022900763358778626,0.0009026527404785156
0.022900763358778626,-3.4732824427480917,0.1297709923664122,0.0009016990661621094
-0.03816793893129771,-3.5419847328244276,-0.015267175572519083,0.0009019374847412109
0.007633587786259542,-3.5801526717557253,-0.1297709923664122,0.0009090900421142578
0.03816793893129771,-3.6030534351145036,0.030534351145038167,0.0009043216705322266
0.030534351145038167,-3.549618320610687,-0.007633587786259542,0.0009016990661621094
-0.04580152671755725,-3.404580152671756,0.0,0.0009024143218994141
0.04580152671755725,-3.4122137404580153,0.16030534351145037,0.0009007453918457031
0.0916030534351145,-3.549618320610687,0.24427480916030533,0.0009026527404785156
0.015267175572519083,-3.6412213740458017,0.1450381679389313,0.0009009838104248047
-0.04580152671755725,-3.618320610687023,0.183206106870229,0.0009021759033203125
-0.03816793893129771,-3.5877862595419847,0.03816793893129771,0.0009021759033203125
-0.0916030534351145,-3.6946564885496183,-0.022900763358778626,0.0009028911590576172
-0.12213740458015267,-3.5877862595419847,0.030534351145038167,0.0009024143218994141
-0.06870229007633588,-3.5267175572519083,0.10687022900763359,0.0009019374847412109
-0.06870229007633588,-3.648854961832061,0.007633587786259542,0.0009024143218994141
-0.030534351145038167,-3.595419847328244,0.04580152671755725,0.0009021759033203125
0.04580152671755725,-3.50381679389313,0.04580152671755725,0.0009026527404785156
0.06870229007633588,-3.5572519083969465,0.04580152671755725,0.0009009838104248047
0.03816793893129771,-3.564885496183206,0.030534351145038167,0.0009026527404785156
0.0,-3.6030534351145036,0.0,0.0009016990661621094
-0.03816793893129771,-3.49618320610687,-0.10687022900763359,0.0008990764617919922
0.0916030534351145,-3.450381679389313,-0.06870229007633588,0.0009019374847412109
0.12213740458015267,-3.3587786259541983,0.08396946564885496,0.0009019374847412109
0.05343511450381679,-3.4885496183206106,0.0916030534351145,0.0009021759033203125
0.08396946564885496,-3.687022900763359,-0.007633587786259542,0.0009021759033203125
0.03816793893129771,-3.6412213740458017,0.03816793893129771,0.0009031295776367188
0.030534351145038167,-3.5114503816793894,0.08396946564885496,0.0009012222290039062
0.08396946564885496,-3.4580152671755724,0.09923664122137404,0.0009014606475830078
0.0916030534351145,-3.267175572519084,0.09923664122137404,0.0009016990661621094
-0.0916030534351145,-3.435114503816794,0.007633587786259542,0.0009024143218994141
-0.12213740458015267,-3.648854961832061,0.11450381679389313,0.0009024143218994141
-0.04580152671755725,-3.7404580152671754,0.16030534351145037,0.0009021759033203125
-0.06870229007633588,-3.572519083969466,0.061068702290076333,0.0009021759033203125
-0.09923664122137404,-3.49618320610687,0.0,0.0009019374847412109
0.0,-3.549618320610687,0.0916030534351145,0.0009024143218994141
-0.015267175572519083,-3.572519083969466,-0.03816793893129771,0.0009000301361083984
0.007633587786259542,-3.5267175572519083,0.0,0.0009028911590576172
0.022900763358778626,-3.5267175572519083,0.08396946564885496,0.0009012222290039062
0.0,-3.519083969465649,0.16793893129770993,0.0009033679962158203
-0.015267175572519083,-3.4580152671755724,0.10687022900763359,0.0009002685546875
-0.03816793893129771,-3.5801526717557253,0.1297709923664122,0.0009031295776367188
-0.05343511450381679,-3.4885496183206106,0.007633587786259542,0.0009019374847412109
-0.03816793893129771,-3.3587786259541983,0.04580152671755725,0.0009036064147949219
0.0,-3.351145038167939,0.030534351145038167,0.0009019374847412109
0.03816793893129771,-3.3587786259541983,0.007633587786259542,0.0009005069732666016
0.03816793893129771,-3.3435114503816794,-0.1297709923664122,0.0009016990661621094
-0.015267175572519083,-3.3969465648854964,0.007633587786259542,0.0009026527404785156
-0.061068702290076333,-3.450381679389313,0.05343511450381679,0.0009028911590576172
-0.061068702290076333,-3.618320610687023,0.07633587786259542,0.0009021759033203125
-0.0916030534351145,-3.6259541984732824,0.11450381679389313,0.0009016990661621094
-0.06870229007633588,-3.5801526717557253,0.08396946564885496,0.0009021759033203125
0.0,-3.4885496183206106,0.08396946564885496,0.0009026527404785156
0.06870229007633588,-3.3969465648854964,-0.06870229007633588,0.0008995532989501953
0.015267175572519083,-3.3893129770992365,-0.1450381679389313,0.0009019374847412109
0.0,-3.4427480916030535,-0.08396946564885496,0.0009026527404785156
0.030534351145038167,-3.4732824427480917,0.183206106870229,0.0010595321655273438
0.06870229007633588,-3.4198473282442747,0.0,0.0009157657623291016
0.03816793893129771,-3.351145038167939,0.15267175572519084,0.0009045600891113281
-0.015267175572519083,-3.4580152671755724,0.20610687022900764,0.0009033679962158203
0.04580152671755725,-3.4656488549618323,0.183206106870229,0.0009036064147949219
-0.007633587786259542,-3.366412213740458,-0.09923664122137404,0.0009031295776367188
-0.06870229007633588,-3.351145038167939,-0.19083969465648856,0.0009202957153320312
-0.03816793893129771,-3.4732824427480917,-0.22137404580152673,0.0009517669677734375
-0.1297709923664122,-3.618320610687023,-0.09923664122137404,0.0009105205535888672
-0.03816793893129771,-3.4580152671755724,0.0,0.0009267330169677734
0.04580152671755725,-3.435114503816794,0.0916030534351145,0.0009443759918212891
0.061068702290076333,-3.3893129770992365,0.07633587786259542,0.0009105205535888672
0.022900763358778626,-3.3587786259541983,0.007633587786259542,0.0009026527404785156
0.061068702290076333,-3.5419847328244276,-0.09923664122137404,0.0009503364562988281
0.05343511450381679,-3.648854961832061,-0.04580152671755725,0.00090789794921875
0.015267175572519083,-3.564885496183206,-0.07633587786259542,0.0009028911590576172
0.0,-3.6030534351145036,-0.08396946564885496,0.0009026527404785156
0.007633587786259542,-3.648854961832061,0.0,0.0009031295776367188
0.03816793893129771,-3.6106870229007635,-0.061068702290076333,0.0009009838104248047
0.16030534351145037,-3.6717557251908395,-0.07633587786259542,0.0009016990661621094
0.07633587786259542,-3.549618320610687,0.05343511450381679,0.0009191036224365234
0.0,-3.450381679389313,0.2366412213740458,0.0009067058563232422
-0.07633587786259542,-3.4885496183206106,0.21374045801526717,0.0009019374847412109
0.05343511450381679,-3.5572519083969465,0.183206106870229,0.0009026527404785156
0.1450381679389313,-3.5267175572519083,-0.0916030534351145,0.0009021759033203125
0.15267175572519084,-3.435114503816794,-0.16030534351145037,0.0009033679962158203
0.08396946564885496,-3.49618320610687,-0.10687022900763359,0.0009019374847412109
0.030534351145038167,-3.49618320610687,-0.06870229007633588,0.0009021759033203125
0.0,-3.5877862595419847,-0.11450381679389313,0.0009024143218994141
0.04580152671755725,-3.381679389312977,-0.022900763358778626,0.0009007453918457031
0.022900763358778626,-3.2900763358778624,0.03816793893129771,0.0009019374847412109
0.061068702290076333,-3.4885496183206106,0.17557251908396945,0.0009024143218994141
0.10687022900763359,-3.618320610687023,0.06870229007633588,0.0009019374847412109
0.183206106870229,-3.5267175572519083,0.007633587786259542,0.0009045600891113281
0.1450381679389313,-3.5343511450381677,0.061068702290076333,0.0009012222290039062
-0.015267175572519083,-3.5877862595419847,0.030534351145038167,0.0009160041809082031
0.007633587786259542,-3.3587786259541983,0.0,0.0009038448333740234
0.030534351145038167,-3.3053435114503817,0.007633587786259542,0.0009069442749023438
0.022900763358778626,-3.366412213740458,0.030534351145038167,0.0009038448333740234
0.030534351145038167,-3.3206106870229006,0.21374045801526717,0.0009016990661621094
0.09923664122137404,-3.33587786259542,0.24427480916030533,0.0009031295776367188
0.05343511450381679,-3.3969465648854964,0.13740458015267176,0.0009012222290039062
0.03816793893129771,-3.4732824427480917,0.022900763358778626,0.0009012222290039062
0.06870229007633588,-3.4732824427480917,0.03816793893129771,0.0009019374847412109
0.022900763358778626,-3.5419847328244276,0.061068702290076333,0.0009024143218994141
-0.08396946564885496,-3.4198473282442747,-0.03816793893129771,0.0009014606475830078
-0.15267175572519084,-3.5114503816793894,0.07633587786259542,0.0009031295776367188
-0.13740458015267176,-3.519083969465649,0.061068702290076333,0.0009028911590576172
-0.16793893129770993,-3.404580152671756,0.09923664122137404,0.0009024143218994141
0.015267175572519083,-3.2519083969465647,0.061068702290076333,0.0009024143218994141
0.1297709923664122,-3.3053435114503817,0.1450381679389313,0.0009014606475830078
0.05343511450381679,-3.435114503816794,0.04580152671755725,0.0009016990661621094
-0.015267175572519083,-3.3893129770992365,-0.007633587786259542,0.0009016990661621094
-0.04580152671755725,-3.3893129770992365,-0.10687022900763359,0.0009038448333740234
-0.05343511450381679,-3.5801526717557253,-0.12213740458015267,0.0009024143218994141
-0.007633587786259542,-3.732824427480916,-0.16793893129770993,0.0009024143218994141
0.10687022900763359,-3.6259541984732824,0.0,0.0009016990661621094
0.03816793893129771,-3.3893129770992365,0.03816793893129771,0.0009007453918457031
0.05343511450381679,-3.3053435114503817,0.09923664122137404,0.0009028911590576172
-0.022900763358778626,-3.480916030534351,0.13740458015267176,0.0009007453918457031
-0.06870229007633588,-3.50381679389313,0.17557251908396945,0.0009024143218994141
-0.022900763358778626,-3.404580152671756,0.0,0.0009021759033203125
0.030534351145038167,-3.3282442748091605,-0.06870229007633588,0.0009016990661621094
0.04580152671755725,-3.4427480916030535,0.06870229007633588,0.0009016990661621094
0.015267175572519083,-3.3893129770992365,0.0,0.0009009838104248047
-0.08396946564885496,-3.4427480916030535,0.007633587786259542,0.0009005069732666016
0.03816793893129771,-3.5343511450381677,0.11450381679389313,0.0009028911590576172
0.05343511450381679,-3.5572519083969465,0.015267175572519083,0.0009016990661621094
0.061068702290076333,-3.572519083969466,0.061068702290076333,0.0009019374847412109
0.04580152671755725,-3.519083969465649,0.08396946564885496,0.0009014606475830078
-0.04580152671755725,-3.3969465648854964,0.030534351145038167,0.0009014606475830078
-0.015267175572519083,-3.2977099236641223,0.06870229007633588,0.0009026527404785156
0.04580152671755725,-3.519083969465649,0.0,0.0009021759033203125
0.05343511450381679,-3.717557251908397,0.1297709923664122,0.0009002685546875
-0.08396946564885496,-3.549618320610687,0.030534351145038167,0.0009019374847412109
-0.07633587786259542,-3.3740458015267176,0.22137404580152673,0.0009033679962158203
-0.11450381679389313,-3.3435114503816794,0.12213740458015267,0.0009019374847412109
-0.183206106870229,-3.6106870229007635,0.022900763358778626,0.0009026527404785156
-0.04580152671755725,-3.6412213740458017,-0.030534351145038167,0.0009016990661621094
0.04580152671755725,-3.5114503816793894,-0.03816793893129771,0.0009024143218994141
-0.04580152671755725,-3.4122137404580153,-0.07633587786259542,0.0009028911590576172
-0.1984732824427481,-3.3435114503816794,0.03816793893129771,0.0009019374847412109
-0.1450381679389313,-3.427480916030534,0.007633587786259542,0.0009016990661621094
-0.06870229007633588,-3.5114503816793894,0.03816793893129771,0.0009019374847412109
0.03816793893129771,-3.5343511450381677,-0.007633587786259542,0.0009026527404785156
0.04580152671755725,-3.519083969465649,-0.08396946564885496,0.0009009838104248047
0.0,-3.381679389312977,-0.061068702290076333,0.0009021759033203125
-0.06870229007633588,-3.480916030534351,0.05343511450381679,0.0009007453918457031
-0.183206106870229,-3.6412213740458017,0.05343511450381679,0.0009174346923828125
-0.04580152671755725,-3.549618320610687,0.05343511450381679,0.0009033679962158203
0.007633587786259542,-3.435114503816794,0.0916030534351145,0.0009024143218994141
0.04580152671755725,-3.50381679389313,0.0916030534351145,0.0009016990661621094
0.06870229007633588,-3.5419847328244276,-0.007633587786259542,0.0009012222290039062
-0.030534351145038167,-3.4885496183206106,-0.030534351145038167,0.0009036064147949219
-0.10687022900763359,-3.5419847328244276,0.007633587786259542,0.0009024143218994141
-0.11450381679389313,-3.427480916030534,-0.03816793893129771,0.0009028911590576172
0.0,-3.2290076335877864,0.05343511450381679,0.0009021759033203125
-0.015267175572519083,-3.2977099236641223,0.05343511450381679,0.0009009838104248047
0.0,-3.5267175572519083,0.061068702290076333,0.0009014606475830078
0.030534351145038167,-3.6030534351145036,0.15267175572519084,0.0009005069732666016
0.007633587786259542,-3.427480916030534,0.17557251908396945,0.0009014606475830078
-0.061068702290076333,-3.351145038167939,0.022900763358778626,0.0010650157928466797
0.022900763358778626,-3.2519083969465647,0.015267175572519083,0.0009102821350097656
0.11450381679389313,-3.381679389312977,0.07633587786259542,0.0009033679962158203
0.15267175572519084,-3.595419847328244,0.12213740458015267,0.0009047985076904297
-0.007633587786259542,-3.595419847328244,-0.022900763358778626,0.0009021759033203125
0.07633587786259542,-3.633587786259542,0.08396946564885496,0.0009033679962158203
0.022900763358778626,-3.5114503816793894,0.0,0.0009016990661621094
0.022900763358778626,-3.366412213740458,-0.06870229007633588,0.0009000301361083984
-0.061068702290076333,-3.3893129770992365,0.0916030534351145,0.0009021759033203125
-0.1297709923664122,-3.49618320610687,0.015267175572519083,0.0009031295776367188
-0.10687022900763359,-3.7709923664122136,-0.05343511450381679,0.0009016990661621094
0.08396946564885496,-3.7251908396946565,0.07633587786259542,0.0009026527404785156
0.1297709923664122,-3.5877862595419847,0.1297709923664122,0.0009016990661621094
0.10687022900763359,-3.5801526717557253,0.05343511450381679,0.0009016990661621094
0.007633587786259542,-3.450381679389313,0.015267175572519083,0.0009024143218994141
0.0,-3.519083969465649,-0.030534351145038167,0.0009005069732666016
-0.0916030534351145,-3.5343511450381677,0.11450381679389313,0.0009002685546875
-0.061068702290076333,-3.6106870229007635,0.05343511450381679,0.0009021759033203125
-0.030534351145038167,-3.549618320610687,0.12213740458015267,0.0009033679962158203
-0.022900763358778626,-3.3969465648854964,0.05343511450381679,0.0009019374847412109
0.0,-3.4122137404580153,0.06870229007633588,0.0009021759033203125
0.007633587786259542,-3.3435114503816794,0.16030534351145037,0.0009005069732666016
0.0,-3.2977099236641223,0.17557251908396945,0.0009024143218994141
0.07633587786259542,-3.3893129770992365,0.015267175572519083,0.0009009838104248047
0.0916030534351145,-3.6106870229007635,0.0,0.0009014606475830078
0.0,-3.717557251908397,0.030534351145038167,0.0009005069732666016
-0.04580152671755725,-3.5801526717557253,-0.022900763358778626,0.0009002685546875
-0.015267175572519083,-3.3435114503816794,-0.0916030534351145,0.0009024143218994141
-0.03816793893129771,-3.381679389312977,0.0916030534351145,0.0009021759033203125
0.0,-3.3435114503816794,0.05343511450381679,0.0009014606475830078
-0.015267175572519083,-3.519083969465649,0.09923664122137404,0.0009098052978515625
0.09923664122137404,-3.572519083969466,-0.030534351145038167,0.0009071826934814453
0.12213740458015267,-3.4656488549618323,-0.030534351145038167,0.0009043216705322266
-0.030534351145038167,-3.549618320610687,0.007633587786259542,0.0009036064147949219
-0.030534351145038167,-3.6030534351145036,-0.05343511450381679,0.0009028911590576172
0.05343511450381679,-3.4885496183206106,0.015267175572519083,0.0009031295776367188
0.10687022900763359,-3.3053435114503817,0.183206106870229,0.0009026527404785156
0.11450381679389313,-3.3206106870229006,0.16793893129770993,0.0009019374847412109
0.022900763358778626,-3.5419847328244276,0.05343511450381679,0.0009021759033203125
0.07633587786259542,-3.618320610687023,0.022900763358778626,0.0009016990661621094
0.16793893129770993,-3.572519083969466,0.022900763358778626,0.0009024143218994141
-0.0916030534351145,-3.5877862595419847,0.12213740458015267,0.0009019374847412109
-0.12213740458015267,-3.49618320610687,0.03816793893129771,0.0009024143218994141
-0.061068702290076333,-3.4885496183206106,0.061068702290076333,0.0009019374847412109
0.061068702290076333,-3.5572519083969465,-0.022900763358778626,0.0009021759033203125
0.10687022900763359,-3.4122137404580153,0.007633587786259542,0.0009028911590576172
0.07633587786259542,-3.3435114503816794,0.007633587786259542,0.0009024143218994141
0.022900763358778626,-3.618320610687023,0.06870229007633588,0.0009016990661621094
0.0,-3.763358778625954,0.015267175572519083,0.0009016990661621094
0.0,-3.5801526717557253,0.061068702290076333,0.0009009838104248047
0.04580152671755725,-3.427480916030534,0.022900763358778626,0.0009000301361083984
0.015267175572519083,-3.4122137404580153,-0.04580152671755725,0.0009014606475830078
0.061068702290076333,-3.366412213740458,-0.15267175572519084,0.0009019374847412109
0.015267175572519083,-3.351145038167939,-0.061068702290076333,0.0009028911590576172
-0.030534351145038167,-3.4580152671755724,0.0,0.0009031295776367188
0.0,-3.4732824427480917,0.1297709923664122,0.0009000301361083984
0.007633587786259542,-3.381679389312977,0.24427480916030533,0.0009000301361083984
0.03816793893129771,-3.312977099236641,0.22900763358778625,0.0009019374847412109
0.022900763358778626,-3.3587786259541983,0.05343511450381679,0.0009024143218994141
-0.007633587786259542,-3.49618320610687,0.007633587786259542,0.0009012222290039062
-0.04580152671755725,-3.572519083969466,0.015267175572519083,0.0009019374847412109
-0.061068702290076333,-3.6106870229007635,0.07633587786259542,0.0009026527404785156
-0.015267175572519083,-3.6259541984732824,0.11450381679389313,0.0009024143218994141
0.007633587786259542,-3.381679389312977,0.007633587786259542,0.0009021759033203125
-0.007633587786259542,-3.2900763358778624,0.015267175572519083,0.0009019374847412109
-0.16793893129770993,-3.351145038167939,0.10687022900763359,0.0009026527404785156
-0.17557251908396945,-3.4656488549618323,0.030534351145038167,0.0009021759033203125
-0.007633587786259542,-3.519083969465649,-0.08396946564885496,0.0009028911590576172
0.06870229007633588,-3.404580152671756,0.015267175572519083,0.0009016990661621094
0.09923664122137404,-3.3893129770992365,-0.022900763358778626,0.0009019374847412109
0.12213740458015267,-3.5877862595419847,0.16793893129770993,0.0009024143218994141
0.16030534351145037,-3.6946564885496183,0.16793893129770993,0.0009021759033203125
0.06870229007633588,-3.786259541984733,0.0,0.0009016990661621094
-0.015267175572519083,-3.7022900763358777,-0.16030534351145037,0.0008995532989501953
-0.030534351145038167,-3.6030534351145036,-0.06870229007633588,0.0009024143218994141
0.007633587786259542,-3.5572519083969465,0.007633587786259542,0.0009024143218994141
0.007633587786259542,-3.427480916030534,-0.015267175572519083,0.0009026527404785156
-0.08396946564885496,-3.2519083969465647,0.007633587786259542,0.0009033679962158203
0.0,-3.366412213740458,0.09923664122137404,0.0009026527404785156
-0.08396946564885496,-3.5801526717557253,0.015267175572519083,0.0009000301361083984
-0.07633587786259542,-3.6564885496183206,-0.03816793893129771,0.0009028911590576172
0.0,-3.687022900763359,-0.15267175572519084,0.0009014606475830078
0.007633587786259542,-3.648854961832061,-0.022900763358778626,0.0009005069732666016
-0.030534351145038167,-3.450381679389313,-0.06870229007633588,0.0009024143218994141
-0.015267175572519083,-3.366412213740458,-0.06870229007633588,0.0009396076202392578
0.007633587786259542,-3.381679389312977,-0.08396946564885496,0.000904083251953125
0.030534351145038167,-3.4427480916030535,-0.10687022900763359,0.0009028911590576172
0.007633587786259542,-3.5343511450381677,-0.12213740458015267,0.0009028911590576172
-0.09923664122137404,-3.549618320610687,-0.1297709923664122,0.0009024143218994141
-0.16030534351145037,-3.5343511450381677,-0.061068702290076333,0.0009036064147949219
-0.09923664122137404,-3.4732824427480917,0.022900763358778626,0.0009021759033203125
-0.08396946564885496,-3.595419847328244,0.12213740458015267,0.0009026527404785156
0.022900763358778626,-3.633587786259542,0.061068702290076333,0.0009016990661621094
0.007633587786259542,-3.572519083969466,-0.04580152671755725,0.0009031295776367188
0.007633587786259542,-3.4198473282442747,-0.09923664122137404,0.0009019374847412109
-0.04580152671755725,-3.4198473282442747,-0.030534351145038167,0.0009016990661621094
0.007633587786259542,-3.404580152671756,-0.15267175572519084,0.0009026527404785156
-0.061068702290076333,-3.366412213740458,-0.17557251908396945,0.0009021759033203125
-0.007633587786259542,-3.4732824427480917,-0.04580152671755725,0.0009028911590576172
-0.030534351145038167,-3.4580152671755724,0.2366412213740458,0.0009016990661621094
-0.03816793893129771,-3.5114503816793894,0.1984732824427481,0.0009021759033203125
0.04580152671755725,-3.5572519083969465,0.16793893129770993,0.0010170936584472656
0.11450381679389313,-3.50381679389313,-0.061068702290076333,0.0009083747863769531
0.04580152671755725,-3.4198473282442747,-0.030534351145038167,0.000904083251953125
-0.061068702290076333,-3.4198473282442747,-0.07633587786259542,0.0009028911590576172
-0.13740458015267176,-3.5419847328244276,0.022900763358778626,0.0009033679962158203
-0.04580152671755725,-3.5572519083969465,0.08396946564885496,0.0009021759033203125
0.015267175572519083,-3.5267175572519083,0.06870229007633588,0.0009016990661621094
0.0916030534351145,-3.618320610687023,0.0,0.0009021759033203125
0.0,-3.4885496183206106,0.030534351145038167,0.0009000301361083984
-0.06870229007633588,-3.50381679389313,0.05343511450381679,0.0009002685546875
-0.08396946564885496,-3.4885496183206106,0.15267175572519084,0.0009021759033203125
-0.030534351145038167,-3.648854961832061,0.09923664122137404,0.0009019374847412109
-0.03816793893129771,-3.6717557251908395,0.10687022900763359,0.0009021759033203125
0.05343511450381679,-3.366412213740458,-0.03816793893129771,0.0009024143218994141
0.05343511450381679,-3.2748091603053435,-0.09923664122137404,0.0009026527404785156
0.07633587786259542,-3.2748091603053435,-0.03816793893129771,0.0009019374847412109
0.04580152671755725,-3.33587786259542,0.15267175572519084,0.0009026527404785156
-0.04580152671755725,-3.450381679389313,0.12213740458015267,0.0009019374847412109
-0.08396946564885496,-3.4580152671755724,0.1984732824427481,0.0009019374847412109
-0.1450381679389313,-3.4427480916030535,0.2366412213740458,0.0009031295776367188
-0.0916030534351145,-3.5572519083969465,0.007633587786259542,0.0009014606475830078
0.10687022900763359,-3.618320610687023,-0.08396946564885496,0.0009026527404785156
0.10687022900763359,-3.4885496183206106,-0.07633587786259542,0.0009021759033203125
-0.030534351145038167,-3.3206106870229006,0.08396946564885496,0.0009031295776367188
-0.03816793893129771,-3.236641221374046,0.015267175572519083,0.0009016990661621094
0.05343511450381679,-3.3740458015267176,0.022900763358778626,0.0009024143218994141
0.061068702290076333,-3.435114503816794,-0.15267175572519084,0.0009016990661621094
0.07633587786259542,-3.6717557251908395,-0.030534351145038167,0.0009202957153320312
0.13740458015267176,-3.6412213740458017,0.061068702290076333,0.0009038448333740234
0.10687022900763359,-3.480916030534351,0.030534351145038167,0.0009016990661621094
-0.09923664122137404,-3.33587786259542,-0.1984732824427481,0.0009019374847412109
-0.11450381679389313,-3.427480916030534,-0.08396946564885496,0.0009105205535888672
-0.022900763358778626,-3.564885496183206,-0.08396946564885496,0.0009417533874511719
0.007633587786259542,-3.5877862595419847,0.03816793893129771,0.0009145736694335938
0.030534351145038167,-3.595419847328244,0.03816793893129771,0.0009222030639648438
0.007633587786259542,-3.5877862595419847,-0.022900763358778626,0.0009474754333496094
0.015267175572519083,-3.4656488549618323,0.007633587786259542,0.0009107589721679688
-0.061068702290076333,-3.50381679389313,-0.007633587786259542,0.0009000301361083984
-0.061068702290076333,-3.5114503816793894,0.03816793893129771,0.0009031295776367188
-0.030534351145038167,-3.4427480916030535,0.17557251908396945,0.0009558200836181641
0.007633587786259542,-3.480916030534351,0.06870229007633588,0.0009100437164306641
0.015267175572519083,-3.4427480916030535,0.04580152671755725,0.0009055137634277344
0.007633587786259542,-3.4427480916030535,-0.03816793893129771,0.0009105205535888672
-0.10687022900763359,-3.427480916030534,0.015267175572519083,0.0009560585021972656
-0.1450381679389313,-3.4656488549618323,0.1297709923664122,0.0009095668792724609
0.007633587786259542,-3.618320610687023,0.1984732824427481,0.0009064674377441406
0.09923664122137404,-3.6259541984732824,0.183206106870229,0.0009019374847412109
0.007633587786259542,-3.5343511450381677,-0.08396946564885496,0.0009021759033203125
0.015267175572519083,-3.381679389312977,-0.0916030534351145,0.0009033679962158203
0.04580152671755725,-3.2977099236641223,-0.05343511450381679,0.0009026527404785156
0.030534351145038167,-3.366412213740458,0.030534351145038167,0.0009021759033203125
0.0,-3.5343511450381677,-0.022900763358778626,0.0009024143218994141
-0.015267175572519083,-3.66412213740458,0.007633587786259542,0.0009036064147949219
0.022900763358778626,-3.732824427480916,0.04580152671755725,0.0009031295776367188
-0.03816793893129771,-3.633587786259542,0.015267175572519083,0.0009026527404785156
0.0,-3.3969465648854964,-0.07633587786259542,0.0009019374847412109
0.022900763358778626,-3.282442748091603,0.030534351145038167,0.0008997917175292969
-0.015267175572519083,-3.435114503816794,0.0,0.0009021759033203125
0.05343511450381679,-3.564885496183206,-0.05343511450381679,0.0009109973907470703
0.0916030534351145,-3.572519083969466,0.06870229007633588,0.0009031295776367188
-0.015267175572519083,-3.5572519083969465,0.04580152671755725,0.0009021759033203125
-0.061068702290076333,-3.7404580152671754,-0.03816793893129771,0.0009019374847412109
0.007633587786259542,-3.66412213740458,-0.03816793893129771,0.0009028911590576172
-0.061068702290076333,-3.480916030534351,-0.030534351145038167,0.000919342041015625
-0.10687022900763359,-3.4656488549618323,-0.10687022900763359,0.0009026527404785156
-0.1297709923664122,-3.351145038167939,-0.022900763358778626,0.0009036064147949219
-0.07633587786259542,-3.2595419847328246,0.10687022900763359,0.0009024143218994141
0.03816793893129771,-3.2290076335877864,0.2366412213740458,0.0009031295776367188
0.09923664122137404,-3.3282442748091605,0.07633587786259542,0.0009007453918457031
0.06870229007633588,-3.3587786259541983,0.05343511450381679,0.0009014606475830078
-0.061068702290076333,-3.4198473282442747,0.03816793893129771,0.0009012222290039062
-0.007633587786259542,-3.450381679389313,0.04580152671755725,0.0009024143218994141
0.007633587786259542,-3.4732824427480917,-0.061068702290076333,0.0009016990661621094
-0.08396946564885496,-3.549618320610687,-0.04580152671755725,0.0009024143218994141
-0.1297709923664122,-3.50381679389313,-0.09923664122137404,0.0009021759033203125
-0.0916030534351145,-3.5267175572519083,0.09923664122137404,0.0009021759033203125
-0.10687022900763359,-3.4656488549618323,0.09923664122137404,0.0009024143218994141
-0.16793893129770993,-3.404580152671756,0.1984732824427481,0.0009024143218994141
-0.022900763358778626,-3.480916030534351,0.08396946564885496,0.0009016990661621094
0.0916030534351145,-3.366412213740458,0.0916030534351145,0.0009016990661621094
0.07633587786259542,-3.351145038167939,0.13740458015267176,0.0009028911590576172
0.007633587786259542,-3.4885496183206106,0.1984732824427481,0.0009026527404785156
0.030534351145038167,-3.5343511450381677,0.05343511450381679,0.0009019374847412109
0.04580152671755725,-3.5419847328244276,-0.06870229007633588,0.0009019374847412109
-0.06870229007633588,-3.4580152671755724,-0.06870229007633588,0.0009047985076904297
-0.10687022900763359,-3.2519083969465647,-0.015267175572519083,0.0009012222290039062
0.0,-3.2748091603053435,-0.015267175572519083,0.0009016990661621094
0.007633587786259542,-3.312977099236641,0.09923664122137404,0.0009007453918457031
-0.04580152671755725,-3.351145038167939,0.3053435114503817,0.0009016990661621094
0.0,-3.404580152671756,0.1450381679389313,0.0009026527404785156
0.007633587786259542,-3.4122137404580153,0.1450381679389313,0.0008993148803710938
-0.007633587786259542,-3.3969465648854964,0.07633587786259542,0.0009024143218994141
-0.07633587786259542,-3.4656488549618323,0.061068702290076333,0.0009059906005859375
-0.13740458015267176,-3.50381679389313,0.0,0.0009024143218994141
-0.0916030534351145,-3.480916030534351,0.07633587786259542,0.0008990764617919922
0.0,-3.480916030534351,0.05343511450381679,0.0009012222290039062
0.12213740458015267,-3.4885496183206106,0.07633587786259542,0.0008995532989501953
0.03816793893129771,-3.50381679389313,-0.022900763358778626,0.0009016990661621094
0.015267175572519083,-3.5572519083969465,-0.05343511450381679,0.0009016990661621094
0.022900763358778626,-3.4656488549618323,-0.061068702290076333,0.0009019374847412109
-0.05343511450381679,-3.404580152671756,0.07633587786259542,0.0010824203491210938
-0.0916030534351145,-3.66412213740458,0.183206106870229,0.0009093284606933594
0.007633587786259542,-3.648854961832061,0.0916030534351145,0.0009043216705322266
0.06870229007633588,-3.595419847328244,0.0,0.0009024143218994141
-0.022900763358778626,-3.66412213740458,-0.03816793893129771,0.0009005069732666016
-0.015267175572519083,-3.66412213740458,0.061068702290076333,0.0009036064147949219
0.007633587786259542,-3.6030534351145036,0.11450381679389313,0.0009152889251708984
0.08396946564885496,-3.4656488549618323,0.12213740458015267,0.0009031295776367188
0.061068702290076333,-3.3435114503816794,-0.04580152671755725,0.0009021759033203125
0.007633587786259542,-3.49618320610687,0.0916030534351145,0.0009024143218994141
-0.007633587786259542,-3.618320610687023,0.061068702290076333,0.0009012222290039062
-0.015267175572519083,-3.549618320610687,0.03816793893129771,0.0009028911590576172
-0.0916030534351145,-3.50381679389313,-0.11450381679389313,0.0009019374847412109
-0.06870229007633588,-3.5343511450381677,0.007633587786259542,0.0009024143218994141
-0.0916030534351145,-3.4885496183206106,-0.007633587786259542,0.0009019374847412109
-0.08396946564885496,-3.595419847328244,-0.10687022900763359,0.0009028911590576172
-0.11450381679389313,-3.687022900763359,-0.04580152671755725,0.000904083251953125
-0.10687022900763359,-3.648854961832061,0.11450381679389313,0.0009028911590576172
-0.08396946564885496,-3.49618320610687,0.007633587786259542,0.0009021759033203125
-0.10687022900763359,-3.381679389312977,0.07633587786259542,0.0009024143218994141
-0.11450381679389313,-3.3969465648854964,0.10687022900763359,0.0009031295776367188
-0.09923664122137404,-3.4656488549618323,0.07633587786259542,0.0009016990661621094
-0.007633587786259542,-3.564885496183206,0.015267175572519083,0.0009019374847412109
0.06870229007633588,-3.4885496183206106,0.061068702290076333,0.0009016990661621094
0.07633587786259542,-3.564885496183206,0.0916030534351145,0.0009024143218994141
-0.007633587786259542,-3.786259541984733,0.183206106870229,0.0009009838104248047
-0.022900763358778626,-3.83206106870229,0.030534351145038167,0.0009021759033203125
-0.05343511450381679,-3.5419847328244276,0.007633587786259542,0.0009021759033203125
-0.10687022900763359,-3.480916030534351,-0.022900763358778626,0.0009021759033203125
-0.1450381679389313,-3.50381679389313,0.007633587786259542,0.0009031295776367188
-0.20610687022900764,-3.564885496183206,0.12213740458015267,0.0009016990661621094
-0.0916030534351145,-3.5343511450381677,0.015267175572519083,0.0009019374847412109
0.0,-3.6106870229007635,-0.06870229007633588,0.0009021759033203125
0.06870229007633588,-3.4885496183206106,-0.0916030534351145,0.0009007453918457031
0.022900763358778626,-3.4656488549618323,-0.022900763358778626,0.0009019374847412109
-0.007633587786259542,-3.5343511450381677,-0.007633587786259542,0.0009024143218994141
0.022900763358778626,-3.549618320610687,0.09923664122137404,0.0009021759033203125
-0.05343511450381679,-3.480916030534351,0.007633587786259542,0.0009028911590576172
-0.09923664122137404,-3.450381679389313,-0.007633587786259542,0.0009009838104248047
0.0,-3.519083969465649,0.07633587786259542,0.0009021759033203125
0.007633587786259542,-3.564885496183206,0.10687022900763359,0.0009000301361083984
-0.08396946564885496,-3.5572519083969465,0.03816793893129771,0.0009031295776367188
-0.04580152671755725,-3.4732824427480917,0.061068702290076333,0.0009033679962158203
-0.04580152671755725,-3.3282442748091605,0.0,0.0009016990661621094
-0.061068702290076333,-3.3893129770992365,-0.061068702290076333,0.0009002685546875
0.0,-3.5114503816793894,-0.007633587786259542,0.0009021759033203125
-0.022900763358778626,-3.480916030534351,0.20610687022900764,0.0009005069732666016
-0.022900763358778626,-3.2977099236641223,0.08396946564885496,0.0009014606475830078
0.0,-3.2595419847328246,-0.03816793893129771,0.0009016990661621094
0.015267175572519083,-3.4656488549618323,-0.12213740458015267,0.0009000301361083984
0.061068702290076333,-3.7022900763358777,-0.0916030534351145,0.0009136199951171875
0.015267175572519083,-3.519083969465649,-0.030534351145038167,0.0009062290191650391
-0.0916030534351145,-3.4885496183206106,0.015267175572519083,0.0009033679962158203
-0.08396946564885496,-3.49618320610687,0.09923664122137404,0.0009031295776367188
0.007633587786259542,-3.6564885496183206,0.04580152671755725,0.0009026527404785156
0.04580152671755725,-3.6259541984732824,0.06870229007633588,0.0009028911590576172
0.030534351145038167,-3.3969465648854964,0.08396946564885496,0.0009021759033203125
0.0,-3.366412213740458,-0.04580152671755725,0.0009021759033203125
-0.061068702290076333,-3.4732824427480917,-0.007633587786259542,0.0009005069732666016
-0.1297709923664122,-3.6717557251908395,-0.07633587786259542,0.0009160041809082031
0.030534351145038167,-3.7480916030534353,-0.1984732824427481,0.0009031295776367188
0.05343511450381679,-3.572519083969466,-0.0916030534351145,0.0009028911590576172
-0.030534351145038167,-3.33587786259542,-0.03816793893129771,0.0009019374847412109
-0.1297709923664122,-3.3053435114503817,0.08396946564885496,0.0009026527404785156
-0.04580152671755725,-3.351145038167939,-0.06870229007633588,0.0009026527404785156
0.08396946564885496,-3.49618320610687,-0.22137404580152673,0.0009021759033203125
0.07633587786259542,-3.6946564885496183,-0.2366412213740458,0.0009024143218994141
-0.030534351145038167,-3.687022900763359,-0.04580152671755725,0.0009021759033203125
-0.06870229007633588,-3.572519083969466,-0.04580152671755725,0.0009028911590576172
0.05343511450381679,-3.3969465648854964,-0.015267175572519083,0.0009019374847412109
0.007633587786259542,-3.4122137404580153,0.04580152671755725,0.0009024143218994141
0.03816793893129771,-3.5343511450381677,0.17557251908396945,0.0009019374847412109
0.0916030534351145,-3.7251908396946565,0.015267175572519083,0.0009019374847412109
-0.015267175572519083,-3.6259541984732824,-0.05343511450381679,0.0009024143218994141
0.007633587786259542,-3.312977099236641,-0.19083969465648856,0.0009021759033203125
-0.030534351145038167,-3.236641221374046,-0.06870229007633588,0.0009019374847412109
-0.061068702290076333,-3.3893129770992365,0.0,0.0009024143218994141
0.0,-3.5343511450381677,0.0,0.0009024143218994141
0.007633587786259542,-3.595419847328244,-0.13740458015267176,0.0008976459503173828
0.0,-3.5572519083969465,-0.08396946564885496,0.0009024143218994141
0.04580152671755725,-3.50381679389313,-0.015267175572519083,0.0009002685546875
0.04580152671755725,-3.618320610687023,0.06870229007633588,0.0009019374847412109
0.07633587786259542,-3.4580152671755724,0.22900763358778625,0.0009021759033203125
0.1297709923664122,-3.312977099236641,0.22900763358778625,0.0009012222290039062
-0.022900763358778626,-3.351145038167939,0.17557251908396945,0.0009016990661621094
-0.12213740458015267,-3.50381679389313,0.1450381679389313,0.0009021759033203125
-0.022900763358778626,-3.450381679389313,0.1297709923664122,0.0009026527404785156
0.06870229007633588,-3.4885496183206106,0.04580152671755725,0.0009016990661621094
0.11450381679389313,-3.564885496183206,0.16793893129770993,0.0009019374847412109
0.061068702290076333,-3.5114503816793894,0.09923664122137404,0.0009012222290039062
0.04580152671755725,-3.4656488549618323,0.09923664122137404,0.0009021759033203125
-0.030534351145038167,-3.3969465648854964,0.03816793893129771,0.0009009838104248047
-0.022900763358778626,-3.519083969465649,-0.04580152671755725,0.0009021759033203125
0.007633587786259542,-3.5114503816793894,-0.06870229007633588,0.0009031295776367188
-0.07633587786259542,-3.404580152671756,-0.030534351145038167,0.0009028911590576172
-0.183206106870229,-3.3587786259541983,0.007633587786259542,0.0009028911590576172
-0.19083969465648856,-3.519083969465649,0.09923664122137404,0.0009019374847412109
-0.1297709923664122,-3.5877862595419847,-0.030534351145038167,0.0009014606475830078
-0.0916030534351145,-3.5114503816793894,-0.05343511450381679,0.0009021759033203125
0.007633587786259542,-3.5114503816793894,-0.13740458015267176,0.0009028911590576172
0.1450381679389313,-3.435114503816794,-0.08396946564885496,0.0009019374847412109
0.16030534351145037,-3.4580152671755724,0.11450381679389313,0.0010213851928710938
0.1297709923664122,-3.480916030534351,0.25190839694656486,0.0009071826934814453
0.09923664122137404,-3.5114503816793894,0.17557251908396945,0.0009038448333740234
0.007633587786259542,-3.435114503816794,0.13740458015267176,0.0009157657623291016
-0.12213740458015267,-3.4427480916030535,-0.022900763358778626,0.0009033679962158203
-0.11450381679389313,-3.435114503816794,-0.061068702290076333,0.0009036064147949219
-0.11450381679389313,-3.519083969465649,0.08396946564885496,0.0009031295776367188
-0.04580152671755725,-3.6030534351145036,0.11450381679389313,0.0009031295776367188
0.11450381679389313,-3.618320610687023,0.12213740458015267,0.0009021759033203125
0.16030534351145037,-3.5877862595419847,0.0,0.0009021759033203125
0.0916030534351145,-3.5419847328244276,0.06870229007633588,0.0009002685546875
0.07633587786259542,-3.572519083969466,-0.015267175572519083,0.0009021759033203125
0.03816793893129771,-3.6564885496183206,0.007633587786259542,0.0009021759033203125
-0.05343511450381679,-3.4656488549618323,-0.015267175572519083,0.0009024143218994141
-0.061068702290076333,-3.404580152671756,-0.030534351145038167,0.0009026527404785156
0.0,-3.366412213740458,-0.183206106870229,0.0009021759033203125
0.10687022900763359,-3.4427480916030535,-0.07633587786259542,0.0009007453918457031
0.17557251908396945,-3.435114503816794,0.183206106870229,0.0009019374847412109
0.13740458015267176,-3.5114503816793894,0.16030534351145037,0.0009012222290039062
0.04580152671755725,-3.6412213740458017,0.022900763358778626,0.0009014606475830078
0.030534351145038167,-3.595419847328244,-0.015267175572519083,0.0009021759033203125
0.030534351145038167,-3.4427480916030535,-0.015267175572519083,0.0009019374847412109
0.015267175572519083,-3.4580152671755724,0.06870229007633588,0.0009021759033203125
0.015267175572519083,-3.2900763358778624,0.09923664122137404,0.0009021759033203125
-0.1450381679389313,-3.2290076335877864,-0.022900763358778626,0.0009019374847412109
-0.15267175572519084,-3.2213740458015265,-0.07633587786259542,0.0009055137634277344
-0.030534351145038167,-3.3206106870229006,-0.04580152671755725,0.0009005069732666016
0.0,-3.549618320610687,0.007633587786259542,0.0009019374847412109
-0.08396946564885496,-3.633587786259542,0.13740458015267176,0.0009005069732666016
-0.06870229007633588,-3.4885496183206106,0.08396946564885496,0.0009021759033203125
-0.05343511450381679,-3.3282442748091605,-0.03816793893129771,0.0009014606475830078
0.022900763358778626,-3.282442748091603,0.007633587786259542,0.0009024143218994141
0.007633587786259542,-3.3206106870229006,0.030534351145038167,0.0009014606475830078
-0.022900763358778626,-3.427480916030534,-0.007633587786259542,0.0009026527404785156
-0.16030534351145037,-3.267175572519084,0.022900763358778626,0.0009021759033203125
-0.1297709923664122,-3.3587786259541983,0.16030534351145037,0.0009024143218994141
0.007633587786259542,-3.3587786259541983,0.0,0.0009024143218994141
0.1450381679389313,-3.4656488549618323,-0.007633587786259542,0.0008997917175292969
0.21374045801526717,-3.595419847328244,0.0,0.0009031295776367188
0.09923664122137404,-3.687022900763359,0.05343511450381679,0.0008990764617919922
0.007633587786259542,-3.648854961832061,-0.007633587786259542,0.0009014606475830078
0.08396946564885496,-3.267175572519084,-0.022900763358778626,0.0009019374847412109
0.015267175572519083,-3.2519083969465647,-0.05343511450381679,0.0009031295776367188
-0.08396946564885496,-3.2748091603053435,0.03816793893129771,0.0009019374847412109
-0.09923664122137404,-3.3740458015267176,0.07633587786259542,0.0009021759033203125
-0.061068702290076333,-3.687022900763359,0.1450381679389313,0.0009024143218994141
0.015267175572519083,-3.6564885496183206,0.05343511450381679,0.0009019374847412109
0.12213740458015267,-3.351145038167939,0.21374045801526717,0.0009024143218994141
0.12213740458015267,-3.3206106870229006,0.0916030534351145,0.0009009838104248047
0.1297709923664122,-3.5801526717557253,0.05343511450381679,0.0009012222290039062
0.06870229007633588,-3.6717557251908395,-0.06870229007633588,0.0009016990661621094
-0.061068702290076333,-3.480916030534351,-0.13740458015267176,0.0009026527404785156
-0.08396946564885496,-3.366412213740458,-0.09923664122137404,0.0009028911590576172
-0.08396946564885496,-3.427480916030534,-0.13740458015267176,0.0009026527404785156
-0.09923664122137404,-3.49618320610687,-0.20610687022900764,0.0009021759033203125
-0.21374045801526717,-3.5343511450381677,-0.12213740458015267,0.0009021759033203125
-0.07633587786259542,-3.5801526717557253,0.061068702290076333,0.0009033679962158203
0.030534351145038167,-3.5114503816793894,0.1297709923664122,0.0009012222290039062
0.12213740458015267,-3.4198473282442747,0.15267175572519084,0.0009150505065917969
0.22137404580152673,-3.4580152671755724,0.04580152671755725,0.0009300708770751953
0.1450381679389313,-3.5267175572519083,-0.16030534351145037,0.0009171962738037109
0.015267175572519083,-3.33587786259542,-0.16030534351145037,0.0009291172027587891
-0.11450381679389313,-3.213740458015267,-0.061068702290076333,0.0009100437164306641
-0.25190839694656486,-3.3969465648854964,0.06870229007633588,0.0009038448333740234
-0.1297709923664122,-3.5877862595419847,0.10687022900763359,0.0009055137634277344
-0.05343511450381679,-3.717557251908397,-0.007633587786259542,0.0009028911590576172
0.08396946564885496,-3.572519083969466,-0.022900763358778626,0.0009033679962158203
0.10687022900763359,-3.4198473282442747,-0.007633587786259542,0.0009024143218994141
0.06870229007633588,-3.4885496183206106,0.05343511450381679,0.0009026527404785156
0.0,-3.5801526717557253,0.015267175572519083,0.0009024143218994141
0.05343511450381679,-3.5572519083969465,-0.015267175572519083,0.0009005069732666016
0.05343511450381679,-3.5114503816793894,-0.07633587786259542,0.0009019374847412109
0.08396946564885496,-3.519083969465649,0.061068702290076333,0.0009105205535888672
-0.007633587786259542,-3.450381679389313,0.07633587786259542,0.0009031295776367188
-0.04580152671755725,-3.3893129770992365,0.11450381679389313,0.0009024143218994141
0.030534351145038167,-3.3206106870229006,-0.09923664122137404,0.0009021759033203125
0.04580152671755725,-3.312977099236641,-0.19083969465648856,0.0009028911590576172
-0.007633587786259542,-3.5114503816793894,-0.08396946564885496,0.0009219646453857422
0.007633587786259542,-3.6030534351145036,-0.007633587786259542,0.000904083251953125
0.20610687022900764,-3.6030534351145036,0.022900763358778626,0.0009026527404785156
0.2366412213740458,-3.6106870229007635,0.030534351145038167,0.0009071826934814453
0.24427480916030533,-3.5343511450381677,0.007633587786259542,0.0009019374847412109
0.16030534351145037,-3.519083969465649,-0.08396946564885496,0.0009031295776367188
0.015267175572519083,-3.5419847328244276,-0.06870229007633588,0.0009024143218994141
-0.12213740458015267,-3.3893129770992365,-0.007633587786259542,0.0009026527404785156
-0.21374045801526717,-3.33587786259542,0.12213740458015267,0.0009021759033203125
-0.07633587786259542,-3.4198473282442747,0.11450381679389313,0.0009016990661621094
0.07633587786259542,-3.404580152671756,-0.007633587786259542,0.0009021759033203125
0.25190839694656486,-3.351145038167939,-0.1984732824427481,0.0009019374847412109
0.22900763358778625,-3.3206106870229006,-0.15267175572519084,0.0009016990661621094
0.0916030534351145,-3.366412213740458,-0.13740458015267176,0.0009021759033203125
0.007633587786259542,-3.3587786259541983,0.022900763358778626,0.0009026527404785156
-0.05343511450381679,-3.49618320610687,0.0916030534351145,0.0009026527404785156
-0.022900763358778626,-3.6793893129770994,-0.007633587786259542,0.0009021759033203125
-0.09923664122137404,-3.6564885496183206,-0.12213740458015267,0.0009024143218994141
-0.19083969465648856,-3.549618320610687,-0.17557251908396945,0.0009038448333740234
-0.2366412213740458,-3.3587786259541983,-0.10687022900763359,0.0009024143218994141
-0.19083969465648856,-3.2442748091603053,0.11450381679389313,0.0009031295776367188
-0.04580152671755725,-3.2900763358778624,0.08396946564885496,0.0009026527404785156
0.007633587786259542,-3.213740458015267,-0.015267175572519083,0.001096487045288086
0.022900763358778626,-3.2213740458015265,0.0,0.0009109973907470703
0.007633587786259542,-3.3740458015267176,-0.015267175572519083,0.0009024143218994141
-0.061068702290076333,-3.519083969465649,-0.007633587786259542,0.0009090900421142578
0.04580152671755725,-3.427480916030534,0.061068702290076333,0.0009074211120605469
-0.05343511450381679,-3.33587786259542,-0.015267175572519083,0.0009055137634277344
-0.13740458015267176,-3.404580152671756,-0.08396946564885496,0.0009009838104248047
-0.0916030534351145,-3.50381679389313,0.022900763358778626,0.0009026527404785156
0.0,-3.5114503816793894,0.007633587786259542,0.0009024143218994141
0.12213740458015267,-3.5801526717557253,0.022900763358778626,0.0009019374847412109
0.08396946564885496,-3.480916030534351,-0.030534351145038167,0.0009012222290039062
0.1297709923664122,-3.3740458015267176,0.06870229007633588,0.0009019374847412109
0.1297709923664122,-3.4198473282442747,0.015267175572519083,0.0009024143218994141
0.030534351145038167,-3.4732824427480917,-0.03816793893129771,0.0009019374847412109
-0.12213740458015267,-3.4198473282442747,-0.16793893129770993,0.0009031295776367188
-0.29770992366412213,-3.4122137404580153,-0.16030534351145037,0.0009026527404785156
-0.2595419847328244,-3.595419847328244,-0.09923664122137404,0.0009145736694335938
-0.0916030534351145,-3.549618320610687,0.13740458015267176,0.0009021759033203125
0.0,-3.404580152671756,0.0,0.0009038448333740234
0.04580152671755725,-3.4122137404580153,0.007633587786259542,0.0008976459503173828
0.06870229007633588,-3.4732824427480917,0.08396946564885496,0.0009019374847412109
0.1297709923664122,-3.4885496183206106,0.05343511450381679,0.0009016990661621094
-0.04580152671755725,-3.480916030534351,0.015267175572519083,0.0009024143218994141
-0.1984732824427481,-3.549618320610687,0.1450381679389313,0.0009016990661621094
-0.183206106870229,-3.450381679389313,0.09923664122137404,0.0009019374847412109
-0.16030534351145037,-3.3969465648854964,0.12213740458015267,0.0009026527404785156
-0.1297709923664122,-3.435114503816794,0.04580152671755725,0.0009024143218994141
-0.015267175572519083,-3.480916030534351,-0.08396946564885496,0.0009026527404785156
0.08396946564885496,-3.4122137404580153,-0.061068702290076333,0.0009021759033203125
0.06870229007633588,-3.3740458015267176,-0.007633587786259542,0.0009024143218994141
0.0916030534351145,-3.3969465648854964,-0.03816793893129771,0.0009024143218994141
0.12213740458015267,-3.351145038167939,0.06870229007633588,0.0009043216705322266
-0.022900763358778626,-3.3893129770992365,0.07633587786259542,0.0009000301361083984
-0.1297709923664122,-3.3969465648854964,0.015267175572519083,0.0009028911590576172
-0.09923664122137404,-3.3893129770992365,0.11450381679389313,0.0009024143218994141
-0.1450381679389313,-3.3435114503816794,0.05343511450381679,0.0009021759033203125
-0.015267175572519083,-3.3740458015267176,0.08396946564885496,0.0009031295776367188
0.0,-3.435114503816794,0.015267175572519083,0.0009019374847412109
0.0916030534351145,-3.6106870229007635,0.03816793893129771,0.0008997917175292969
0.1984732824427481,-3.763358778625954,0.11450381679389313,0.0009014606475830078
0.13740458015267176,-3.7251908396946565,0.06870229007633588,0.0009026527404785156
0.07633587786259542,-3.5267175572519083,-0.015267175572519083,0.0009016990661621094
0.007633587786259542,-3.3053435114503817,-0.030534351145038167,0.0009019374847412109
-0.03816793893129771,-3.236641221374046,-0.03816793893129771,0.0009026527404785156
-0.15267175572519084,-3.2595419847328246,0.0916030534351145,0.0009186267852783203
-0.07633587786259542,-3.312977099236641,0.11450381679389313,0.0009036064147949219
-0.05343511450381679,-3.3206106870229006,0.06870229007633588,0.0009024143218994141
0.04580152671755725,-3.480916030534351,0.022900763358778626,0.0009019374847412109
0.030534351145038167,-3.4732824427480917,0.15267175572519084,0.0009016990661621094
0.11450381679389313,-3.7480916030534353,0.06870229007633588,0.0009031295776367188
0.0916030534351145,-3.816793893129771,0.03816793893129771,0.0009012222290039062
0.030534351145038167,-3.7709923664122136,0.07633587786259542,0.0009014606475830078
0.0,-3.648854961832061,0.11450381679389313,0.0009016990661621094
-0.11450381679389313,-3.5419847328244276,-0.04580152671755725,0.0009005069732666016
-0.19083969465648856,-3.5343511450381677,0.030534351145038167,0.0009016990661621094
-0.03816793893129771,-3.49618320610687,0.15267175572519084,0.0009021759033203125
0.05343511450381679,-3.3893129770992365,0.16030534351145037,0.0009016990661621094
-0.007633587786259542,-3.480916030534351,-0.007633587786259542,0.0009016990661621094
-0.007633587786259542,-3.5572519083969465,-0.22137404580152673,0.0009026527404785156
0.022900763358778626,-3.427480916030534,-0.05343511450381679,0.0009021759033203125
0.0916030534351145,-3.427480916030534,0.09923664122137404,0.0009021759033203125
0.16793893129770993,-3.5801526717557253,0.007633587786259542,0.0009012222290039062
0.16793893129770993,-3.5801526717557253,-0.13740458015267176,0.0009036064147949219
0.0916030534351145,-3.633587786259542,-0.08396946564885496,0.0009012222290039062
-0.030534351145038167,-3.717557251908397,-0.061068702290076333,0.0009019374847412109
-0.08396946564885496,-3.5572519083969465,0.2595419847328244,0.0009031295776367188
-0.05343511450381679,-3.3206106870229006,0.31297709923664124,0.0009024143218994141
0.061068702290076333,-3.2900763358778624,0.2824427480916031,0.0009028911590576172
0.08396946564885496,-3.4122137404580153,0.030534351145038167,0.0009005069732666016
0.04580152671755725,-3.5114503816793894,-0.10687022900763359,0.0009016990661621094
0.11450381679389313,-3.450381679389313,-0.09923664122137404,0.0009024143218994141
0.12213740458015267,-3.381679389312977,-0.03816793893129771,0.0009026527404785156
0.022900763358778626,-3.351145038167939,-0.05343511450381679,0.0009143352508544922
0.007633587786259542,-3.3893129770992365,0.11450381679389313,0.0009052753448486328
0.015267175572519083,-3.3969465648854964,0.007633587786259542,0.0009031295776367188
0.0,-3.5419847328244276,0.04580152671755725,0.0009038448333740234
-0.03816793893129771,-3.6564885496183206,-0.11450381679389313,0.0009005069732666016
0.015267175572519083,-3.6717557251908395,-0.03816793893129771,0.0009036064147949219
0.04580152671755725,-3.5572519083969465,-0.061068702290076333,0.0009024143218994141
0.0,-3.5114503816793894,0.08396946564885496,0.0009024143218994141
-0.007633587786259542,-3.435114503816794,0.16030534351145037,0.0009009838104248047
0.05343511450381679,-3.3893129770992365,0.07633587786259542,0.0009014606475830078
0.04580152671755725,-3.427480916030534,-0.08396946564885496,0.0009019374847412109
0.05343511450381679,-3.3969465648854964,-0.08396946564885496,0.0009014606475830078
0.08396946564885496,-3.450381679389313,0.0,0.0009031295776367188
0.07633587786259542,-3.4656488549618323,0.13740458015267176,0.0008995532989501953
0.08396946564885496,-3.480916030534351,0.2900763358778626,0.0009016990661621094
-0.015267175572519083,-3.4198473282442747,0.07633587786259542,0.0009016990661621094
-0.030534351145038167,-3.450381679389313,0.04580152671755725,0.0009024143218994141
0.007633587786259542,-3.435114503816794,0.061068702290076333,0.0009028911590576172
-0.030534351145038167,-3.50381679389313,0.0,0.0009012222290039062
0.015267175572519083,-3.480916030534351,-0.030534351145038167,0.0009000301361083984
0.03816793893129771,-3.3740458015267176,0.007633587786259542,0.0009021759033203125
0.11450381679389313,-3.427480916030534,0.0916030534351145,0.0009031295776367188
0.1297709923664122,-3.549618320610687,0.26717557251908397,0.0009012222290039062
-0.03816793893129771,-3.4427480916030535,0.11450381679389313,0.0009016990661621094
-0.06870229007633588,-3.381679389312977,0.04580152671755725,0.0009026527404785156
0.0,-3.49618320610687,-0.07633587786259542,0.000949859619140625
0.0,-3.618320610687023,-0.007633587786259542,0.0009012222290039062
0.07633587786259542,-3.4732824427480917,0.015267175572519083,0.0009005069732666016
0.03816793893129771,-3.2977099236641223,0.20610687022900764,0.0009024143218994141
-0.007633587786259542,-3.3587786259541983,0.20610687022900764,0.0010268688201904297
-0.030534351145038167,-3.4885496183206106,0.10687022900763359,0.0009088516235351562
0.061068702290076333,-3.5114503816793894,0.022900763358778626,0.0009033679962158203
0.08396946564885496,-3.5877862595419847,0.030534351145038167,0.0009028911590576172
0.03816793893129771,-3.4885496183206106,-0.05343511450381679,0.0009024143218994141
-0.1450381679389313,-3.4198473282442747,-0.030534351145038167,0.0009026527404785156
-0.16793893129770993,-3.3282442748091605,-0.10687022900763359,0.0009019374847412109
0.0,-3.2519083969465647,0.007633587786259542,0.0009026527404785156
0.03816793893129771,-3.312977099236641,0.11450381679389313,0.0009009838104248047
0.030534351145038167,-3.6259541984732824,0.06870229007633588,0.0009019374847412109
0.07633587786259542,-3.717557251908397,0.11450381679389313,0.0009024143218994141
0.05343511450381679,-3.5343511450381677,0.007633587786259542,0.0009012222290039062
-0.015267175572519083,-3.4885496183206106,-0.007633587786259542,0.0009021759033203125
0.015267175572519083,-3.6106870229007635,0.03816793893129771,0.0009021759033203125
0.030534351145038167,-3.4885496183206106,0.022900763358778626,0.0009026527404785156
-0.04580152671755725,-3.3893129770992365,0.05343511450381679,0.0009016990661621094
-0.17557251908396945,-3.2977099236641223,0.13740458015267176,0.0009024143218994141
-0.2366412213740458,-3.351145038167939,-0.12213740458015267,0.0009026527404785156
-0.12213740458015267,-3.3740458015267176,-0.03816793893129771,0.0009064674377441406
0.061068702290076333,-3.4885496183206106,-0.022900763358778626,0.0009031295776367188
0.13740458015267176,-3.572519083969466,0.11450381679389313,0.0009026527404785156
0.16793893129770993,-3.595419847328244,0.183206106870229,0.0009021759033203125
0.183206106870229,-3.549618320610687,0.25190839694656486,0.0009019374847412109
0.04580152671755725,-3.5801526717557253,0.15267175572519084,0.0009026527404785156
-0.05343511450381679,-3.6259541984732824,0.0,0.0009014606475830078
-0.04580152671755725,-3.595419847328244,-0.09923664122137404,0.0009016990661621094
0.09923664122137404,-3.5267175572519083,-0.022900763358778626,0.0009031295776367188
0.16030534351145037,-3.4580152671755724,0.015267175572519083,0.0009026527404785156
0.1297709923664122,-3.519083969465649,0.030534351145038167,0.0009012222290039062
-0.007633587786259542,-3.572519083969466,0.061068702290076333,0.0009019374847412109
-0.015267175572519083,-3.480916030534351,-0.030534351145038167,0.0009021759033203125
-0.08396946564885496,-3.5572519083969465,-0.12213740458015267,0.0009028911590576172
0.0,-3.4885496183206106,-0.1450381679389313,0.0009033679962158203
-0.04580152671755725,-3.4427480916030535,-0.030534351145038167,0.0009009838104248047
-0.1297709923664122,-3.3206106870229006,-0.07633587786259542,0.0009026527404785156
-0.04580152671755725,-3.435114503816794,0.1297709923664122,0.0009021759033203125
0.030534351145038167,-3.4732824427480917,0.11450381679389313,0.0009028911590576172
0.015267175572519083,-3.381679389312977,0.09923664122137404,0.0009016990661621094
-0.08396946564885496,-3.2977099236641223,0.0,0.0009019374847412109
-0.12213740458015267,-3.3435114503816794,-0.08396946564885496,0.0009007453918457031
-0.07633587786259542,-3.3740458015267176,-0.030534351145038167,0.0009160041809082031
-0.04580152671755725,-3.5419847328244276,-0.022900763358778626,0.0009043216705322266
0.007633587786259542,-3.572519083969466,-0.0916030534351145,0.0009026527404785156
-0.061068702290076333,-3.5877862595419847,0.0,0.0009021759033203125
-0.06870229007633588,-3.435114503816794,-0.08396946564885496,0.0009012222290039062
-0.06870229007633588,-3.3435114503816794,-0.06870229007633588,0.0009036064147949219
-0.061068702290076333,-3.351145038167939,-0.07633587786259542,0.0009024143218994141
-0.07633587786259542,-3.427480916030534,0.007633587786259542,0.0009033679962158203
-0.06870229007633588,-3.3969465648854964,-0.030534351145038167,0.0009024143218994141
-0.04580152671755725,-3.564885496183206,-0.061068702290076333,0.0009033679962158203
-0.11450381679389313,-3.5114503816793894,-0.08396946564885496,0.0009019374847412109
-0.17557251908396945,-3.450381679389313,-0.06870229007633588,0.0009028911590576172
-0.1450381679389313,-3.618320610687023,-0.07633587786259542,0.0009026527404785156
0.007633587786259542,-3.5572519083969465,0.007633587786259542,0.0009026527404785156
0.0916030534351145,-3.549618320610687,0.09923664122137404,0.0009028911590576172
0.1297709923664122,-3.6564885496183206,0.1984732824427481,0.0009016990661621094
0.0916030534351145,-3.564885496183206,0.1450381679389313,0.0009021759033203125
0.08396946564885496,-3.49618320610687,0.09923664122137404,0.0009007453918457031
0.11450381679389313,-3.381679389312977,-0.015267175572519083,0.0009021759033203125
0.061068702290076333,-3.49618320610687,-0.061068702290076333,0.0009019374847412109
0.061068702290076333,-3.5877862595419847,-0.015267175572519083,0.0009021759033203125
0.007633587786259542,-3.595419847328244,-0.030534351145038167,0.0009028911590576172
-0.1450381679389313,-3.435114503816794,0.022900763358778626,0.0009024143218994141
-0.11450381679389313,-3.3282442748091605,0.007633587786259542,0.0009028911590576172
-0.007633587786259542,-3.49618320610687,0.007633587786259542,0.0009016990661621094
0.10687022900763359,-3.7480916030534353,0.007633587786259542,0.0009016990661621094
0.09923664122137404,-3.6946564885496183,-0.05343511450381679,0.0009021759033203125
0.1297709923664122,-3.4885496183206106,-0.09923664122137404,0.0009028911590576172
0.0,-3.366412213740458,0.03816793893129771,0.0009021759033203125
0.015267175572519083,-3.4732824427480917,0.0,0.0008997917175292969
0.030534351145038167,-3.5419847328244276,0.09923664122137404,0.0009002685546875
0.061068702290076333,-3.572519083969466,-0.04580152671755725,0.0009021759033203125
-0.030534351145038167,-3.5114503816793894,0.0,0.0009012222290039062
-0.030534351145038167,-3.4122137404580153,-0.015267175572519083,0.0009009838104248047
0.04580152671755725,-3.3435114503816794,0.007633587786259542,0.0009026527404785156
0.09923664122137404,-3.4427480916030535,-0.030534351145038167,0.0009021759033203125
0.12213740458015267,-3.4198473282442747,-0.04580152671755725,0.0009028911590576172
0.0,-3.427480916030534,0.007633587786259542,0.0009024143218994141
-0.022900763358778626,-3.572519083969466,0.0916030534351145,0.0009005069732666016
0.015267175572519083,-3.5877862595419847,0.03816793893129771,0.0009014606475830078
-0.007633587786259542,-3.435114503816794,0.03816793893129771,0.0009021759033203125
-0.030534351145038167,-3.50381679389313,0.0,0.0009028911590576172
-0.06870229007633588,-3.5572519083969465,0.05343511450381679,0.0009105205535888672
0.015267175572519083,-3.549618320610687,0.0916030534351145,0.0009057521820068359
-0.007633587786259542,-3.5343511450381677,0.10687022900763359,0.0009028911590576172
-0.061068702290076333,-3.435114503816794,0.030534351145038167,0.0009050369262695312
0.007633587786259542,-3.3435114503816794,0.061068702290076333,0.0009415149688720703
0.06870229007633588,-3.33587786259542,0.1297709923664122,0.0009095668792724609
0.1450381679389313,-3.4732824427480917,0.0,0.0009157657623291016
-0.05343511450381679,-3.5877862595419847,0.05343511450381679,0.0009372234344482422
-0.06870229007633588,-3.480916030534351,0.07633587786259542,0.0009059906005859375
-0.07633587786259542,-3.549618320610687,0.061068702290076333,0.0009028911590576172
-0.09923664122137404,-3.480916030534351,-0.08396946564885496,0.0009026527404785156
0.04580152671755725,-3.4198473282442747,-0.0916030534351145,0.0009148120880126953
0.08396946564885496,-3.480916030534351,-0.11450381679389313,0.0009026527404785156
0.05343511450381679,-3.4198473282442747,0.015267175572519083,0.0009026527404785156
0.04580152671755725,-3.3587786259541983,-0.03816793893129771,0.0009021759033203125
0.03816793893129771,-3.404580152671756,0.015267175572519083,0.0009024143218994141
0.007633587786259542,-3.4885496183206106,0.007633587786259542,0.0009014606475830078
-0.04580152671755725,-3.4656488549618323,0.007633587786259542,0.0009026527404785156
-0.09923664122137404,-3.3282442748091605,-0.11450381679389313,0.0010793209075927734
-0.1297709923664122,-3.282442748091603,-0.007633587786259542,0.0009105205535888672
-0.06870229007633588,-3.5343511450381677,0.10687022900763359,0.0009055137634277344
0.061068702290076333,-3.66412213740458,0.08396946564885496,0.0009088516235351562
0.15267175572519084,-3.50381679389313,0.183206106870229,0.0009038448333740234
0.13740458015267176,-3.351145038167939,0.1297709923664122,0.0009028911590576172
0.06870229007633588,-3.435114503816794,0.12213740458015267,0.0009038448333740234
0.007633587786259542,-3.5267175572519083,0.06870229007633588,0.0009009838104248047
-0.11450381679389313,-3.572519083969466,0.13740458015267176,0.0009024143218994141
-0.07633587786259542,-3.7404580152671754,-0.022900763358778626,0.0009028911590576172
-0.03816793893129771,-3.7022900763358777,0.04580152671755725,0.0009026527404785156
-0.04580152671755725,-3.572519083969466,-0.015267175572519083,0.0009033679962158203
-0.030534351145038167,-3.4732824427480917,0.0,0.0009016990661621094
0.007633587786259542,-3.3587786259541983,-0.022900763358778626,0.0009012222290039062
0.015267175572519083,-3.4885496183206106,-0.07633587786259542,0.0009026527404785156
0.0916030534351145,-3.5419847328244276,-0.07633587786259542,0.0009028911590576172
0.030534351145038167,-3.50381679389313,0.04580152671755725,0.0009016990661621094
0.030534351145038167,-3.5419847328244276,0.030534351145038167,0.0009014606475830078
-0.015267175572519083,-3.3893129770992365,0.015267175572519083,0.0009019374847412109
-0.030534351145038167,-3.2290076335877864,-0.08396946564885496,0.0009026527404785156
0.007633587786259542,-3.3282442748091605,-0.06870229007633588,0.0009031295776367188
0.007633587786259542,-3.572519083969466,0.08396946564885496,0.0009019374847412109
0.030534351145038167,-3.5877862595419847,0.030534351145038167,0.0009024143218994141
-0.015267175572519083,-3.618320610687023,-0.007633587786259542,0.0009019374847412109
0.007633587786259542,-3.7099236641221376,0.08396946564885496,0.0009031295776367188
0.0916030534351145,-3.480916030534351,0.007633587786259542,0.0009028911590576172
0.12213740458015267,-3.2442748091603053,0.007633587786259542,0.0009016990661621094
0.06870229007633588,-3.3435114503816794,0.1297709923664122,0.0009024143218994141
-0.12213740458015267,-3.3206106870229006,0.1297709923664122,0.0009036064147949219
-0.08396946564885496,-3.5267175572519083,0.16030534351145037,0.0009026527404785156
-0.022900763358778626,-3.549618320610687,0.16030534351145037,0.0009026527404785156
0.12213740458015267,-3.519083969465649,0.10687022900763359,0.0009024143218994141
0.16030534351145037,-3.5114503816793894,-0.022900763358778626,0.0009014606475830078
0.10687022900763359,-3.7022900763358777,-0.05343511450381679,0.0009036064147949219
0.0,-3.564885496183206,0.022900763358778626,0.0009019374847412109
-0.030534351145038167,-3.3587786259541983,0.06870229007633588,0.0009000301361083984
-0.030534351145038167,-3.3587786259541983,0.0,0.0009026527404785156
-0.007633587786259542,-3.4198473282442747,0.022900763358778626,0.0009009838104248047
-0.06870229007633588,-3.480916030534351,-0.04580152671755725,0.0009019374847412109
-0.07633587786259542,-3.5877862595419847,0.007633587786259542,0.0009019374847412109
-0.10687022900763359,-3.6717557251908395,0.007633587786259542,0.0009014606475830078
-0.11450381679389313,-3.564885496183206,0.061068702290076333,0.0009028911590576172
-0.12213740458015267,-3.4198473282442747,0.022900763358778626,0.0009031295776367188
0.03816793893129771,-3.450381679389313,0.13740458015267176,0.0009024143218994141
0.022900763358778626,-3.519083969465649,0.1297709923664122,0.0009021759033203125
0.007633587786259542,-3.4198473282442747,0.0,0.0009026527404785156
-0.030534351145038167,-3.381679389312977,-0.06870229007633588,0.0009007453918457031
-0.1297709923664122,-3.3740458015267176,0.04580152671755725,0.0009014606475830078
-0.20610687022900764,-3.4580152671755724,0.10687022900763359,0.0009016990661621094
-0.12213740458015267,-3.564885496183206,0.007633587786259542,0.0009024143218994141
0.0,-3.572519083969466,-0.2748091603053435,0.0009019374847412109
0.12213740458015267,-3.5801526717557253,-0.16793893129770993,0.0009014606475830078
0.0,-3.5572519083969465,-0.015267175572519083,0.0009024143218994141
-0.05343511450381679,-3.480916030534351,0.0,0.0009014606475830078
-0.06870229007633588,-3.4580152671755724,0.07633587786259542,0.0008997917175292969
-0.030534351145038167,-3.3740458015267176,0.11450381679389313,0.0009026527404785156
0.030534351145038167,-3.2977099236641223,0.06870229007633588,0.0009016990661621094
0.0,-3.366412213740458,0.1297709923664122,0.0009019374847412109
-0.15267175572519084,-3.4122137404580153,-0.03816793893129771,0.0008997917175292969
-0.19083969465648856,-3.435114503816794,-0.09923664122137404,0.00090789794921875
-0.07633587786259542,-3.435114503816794,-0.03816793893129771,0.0009047985076904297
0.007633587786259542,-3.450381679389313,-0.015267175572519083,0.0009014606475830078
-0.015267175572519083,-3.4732824427480917,0.10687022900763359,0.0009024143218994141
-0.022900763358778626,-3.4656488549618323,0.022900763358778626,0.0009067058563232422
-0.05343511450381679,-3.3969465648854964,0.007633587786259542,0.0009031295776367188
-0.022900763358778626,-3.4198473282442747,-0.21374045801526717,0.0009028911590576172
0.0,-3.3740458015267176,-0.24427480916030533,0.0009026527404785156
0.07633587786259542,-3.595419847328244,-0.08396946564885496,0.0009007453918457031
0.04580152671755725,-3.5801526717557253,0.030534351145038167,0.0009026527404785156
0.0,-3.5114503816793894,0.04580152671755725,0.0009014606475830078
-0.05343511450381679,-3.5877862595419847,0.10687022900763359,0.0008997917175292969
-0.12213740458015267,-3.519083969465649,0.09923664122137404,0.0009024143218994141
-0.07633587786259542,-3.564885496183206,0.12213740458015267,0.0009019374847412109
0.06870229007633588,-3.4198473282442747,0.061068702290076333,0.0009026527404785156
0.22137404580152673,-3.4198473282442747,0.11450381679389313,0.0009012222290039062
0.17557251908396945,-3.5343511450381677,-0.007633587786259542,0.0009021759033203125
-0.04580152671755725,-3.4580152671755724,-0.1450381679389313,0.0009019374847412109
-0.0916030534351145,-3.3435114503816794,-0.030534351145038167,0.0009033679962158203
-0.007633587786259542,-3.435114503816794,0.1450381679389313,0.0009019374847412109
0.022900763358778626,-3.5114503816793894,0.08396946564885496,0.0009016990661621094
0.04580152671755725,-3.435114503816794,0.04580152671755725,0.0009016990661621094
-0.04580152671755725,-3.4198473282442747,-0.022900763358778626,0.0009260177612304688
-0.061068702290076333,-3.3893129770992365,-0.05343511450381679,0.0009038448333740234
0.015267175572519083,-3.480916030534351,0.0,0.0009028911590576172
0.13740458015267176,-3.6030534351145036,0.09923664122137404,0.0008995532989501953
0.12213740458015267,-3.5419847328244276,0.16793893129770993,0.0009021759033203125
0.022900763358778626,-3.5114503816793894,-0.030534351145038167,0.0009026527404785156
0.015267175572519083,-3.5267175572519083,0.07633587786259542,0.0009021759033203125
0.10687022900763359,-3.5572519083969465,0.0916030534351145,0.0009021759033203125
0.007633587786259542,-3.50381679389313,0.16793893129770993,0.0009016990661621094
0.007633587786259542,-3.4198473282442747,0.0,0.0009021759033203125
-0.030534351145038167,-3.4122137404580153,-0.022900763358778626,0.0008993148803710938
-0.06870229007633588,-3.3740458015267176,-0.06870229007633588,0.0009675025939941406
0.022900763358778626,-3.4198473282442747,-0.03816793893129771,0.0009076595306396484
0.0,-3.5343511450381677,-0.07633587786259542,0.0009038448333740234
-0.015267175572519083,-3.5114503816793894,-0.04580152671755725,0.0009014606475830078
-0.007633587786259542,-3.519083969465649,-0.06870229007633588,0.0009026527404785156
-0.022900763358778626,-3.4580152671755724,0.1297709923664122,0.0009026527404785156
-0.022900763358778626,-3.366412213740458,0.13740458015267176,0.0009021759033203125
-0.07633587786259542,-3.5877862595419847,0.08396946564885496,0.0009024143218994141
-0.05343511450381679,-3.572519083969466,-0.04580152671755725,0.0009021759033203125
0.022900763358778626,-3.4198473282442747,-0.11450381679389313,0.0010275840759277344
0.007633587786259542,-3.519083969465649,-0.05343511450381679,0.0009086132049560547
0.022900763358778626,-3.6717557251908395,-0.07633587786259542,0.0009052753448486328
0.07633587786259542,-3.50381679389313,-0.04580152671755725,0.0009026527404785156
0.11450381679389313,-3.450381679389313,-0.061068702290076333,0.0009019374847412109
-0.022900763358778626,-3.572519083969466,0.05343511450381679,0.0009028911590576172
-0.030534351145038167,-3.7022900763358777,0.183206106870229,0.0009021759033203125
-0.04580152671755725,-3.6030534351145036,0.26717557251908397,0.0009028911590576172
-0.022900763358778626,-3.50381679389313,0.10687022900763359,0.0009014606475830078
-0.11450381679389313,-3.49618320610687,0.0,0.0009024143218994141
-0.08396946564885496,-3.4427480916030535,-0.05343511450381679,0.0009012222290039062
-0.05343511450381679,-3.4580152671755724,0.022900763358778626,0.0009028911590576172
-0.007633587786259542,-3.4885496183206106,0.1297709923664122,0.0009014606475830078
0.08396946564885496,-3.381679389312977,0.06870229007633588,0.0009019374847412109
0.10687022900763359,-3.381679389312977,-0.061068702290076333,0.0009016990661621094
0.030534351145038167,-3.351145038167939,0.10687022900763359,0.0009021759033203125
-0.06870229007633588,-3.366412213740458,0.16030534351145037,0.0009028911590576172
-0.06870229007633588,-3.3206106870229006,0.015267175572519083,0.0009016990661621094
-0.022900763358778626,-3.3587786259541983,-0.12213740458015267,0.0009024143218994141
-0.061068702290076333,-3.450381679389313,-0.12213740458015267,0.0009028911590576172
-0.007633587786259542,-3.3969465648854964,-0.10687022900763359,0.0009028911590576172
0.030534351145038167,-3.404580152671756,-0.07633587786259542,0.0009019374847412109
0.16030534351145037,-3.450381679389313,0.0,0.0009019374847412109
0.13740458015267176,-3.519083969465649,0.04580152671755725,0.0009005069732666016
0.04580152671755725,-3.549618320610687,0.030534351145038167,0.0009024143218994141
-0.007633587786259542,-3.549618320610687,-0.1297709923664122,0.0009021759033203125
0.061068702290076333,-3.6717557251908395,-0.15267175572519084,0.0009016990661621094
0.05343511450381679,-3.7709923664122136,-0.061068702290076333,0.0009024143218994141
-0.022900763358778626,-3.6030534351145036,0.0916030534351145,0.0009019374847412109
-0.05343511450381679,-3.480916030534351,0.183206106870229,0.0009028911590576172
0.03816793893129771,-3.4732824427480917,0.07633587786259542,0.0009016990661621094
0.06870229007633588,-3.3587786259541983,-0.10687022900763359,0.0009021759033203125
0.1297709923664122,-3.282442748091603,0.007633587786259542,0.0009050369262695312
0.0916030534351145,-3.33587786259542,0.015267175572519083,0.0009028911590576172
0.007633587786259542,-3.5114503816793894,0.16793893129770993,0.0009012222290039062
0.0,-3.717557251908397,0.061068702290076333,0.0009019374847412109
-0.03816793893129771,-3.66412213740458,0.022900763358778626,0.0009000301361083984
-0.10687022900763359,-3.5343511450381677,0.007633587786259542,0.0009024143218994141
-0.08396946564885496,-3.4732824427480917,0.030534351145038167,0.0009031295776367188
0.0,-3.5114503816793894,-0.10687022900763359,0.0009016990661621094
0.007633587786259542,-3.49618320610687,0.06870229007633588,0.0009007453918457031
0.007633587786259542,-3.66412213740458,0.07633587786259542,0.0009024143218994141
0.030534351145038167,-3.6564885496183206,0.09923664122137404,0.0009014606475830078
-0.022900763358778626,-3.5572519083969465,0.022900763358778626,0.0009019374847412109
-0.06870229007633588,-3.6030534351145036,0.09923664122137404,0.0009028911590576172
-0.03816793893129771,-3.6030534351145036,0.061068702290076333,0.0009021759033203125
-0.022900763358778626,-3.519083969465649,0.07633587786259542,0.0009024143218994141
-0.015267175572519083,-3.5419847328244276,0.022900763358778626,0.0009033679962158203
-0.1450381679389313,-3.5343511450381677,0.007633587786259542,0.0009036064147949219
-0.03816793893129771,-3.4656488549618323,0.06870229007633588,0.0009026527404785156
0.04580152671755725,-3.480916030534351,0.05343511450381679,0.0009016990661621094
0.0916030534351145,-3.4885496183206106,0.0,0.0009024143218994141
0.1297709923664122,-3.5572519083969465,-0.015267175572519083,0.0008995532989501953
0.15267175572519084,-3.6030534351145036,0.08396946564885496,0.0009031295776367188
0.15267175572519084,-3.564885496183206,0.12213740458015267,0.0009024143218994141
0.007633587786259542,-3.4885496183206106,0.007633587786259542,0.0009026527404785156
0.0,-3.4122137404580153,0.0,0.0009016990661621094
-0.007633587786259542,-3.4122137404580153,0.022900763358778626,0.0008976459503173828
-0.022900763358778626,-3.4885496183206106,0.007633587786259542,0.0009024143218994141
-0.10687022900763359,-3.480916030534351,0.1297709923664122,0.0009026527404785156
-0.16793893129770993,-3.4885496183206106,0.17557251908396945,0.0009028911590576172
-0.07633587786259542,-3.4198473282442747,0.12213740458015267,0.0009019374847412109
0.0,-3.4580152671755724,0.015267175572519083,0.0009021759033203125
0.07633587786259542,-3.5267175572519083,0.0,0.0009000301361083984
0.1297709923664122,-3.595419847328244,-0.08396946564885496,0.0009002685546875
0.0,-3.5267175572519083,-0.11450381679389313,0.0009028911590576172
-0.03816793893129771,-3.519083969465649,0.04580152671755725,0.0009009838104248047
-0.17557251908396945,-3.4122137404580153,0.13740458015267176,0.0009021759033203125
-0.08396946564885496,-3.4656488549618323,0.007633587786259542,0.0009024143218994141
0.06870229007633588,-3.549618320610687,-0.06870229007633588,0.0009031295776367188
0.17557251908396945,-3.5801526717557253,-0.0916030534351145,0.0009012222290039062
0.1297709923664122,-3.6106870229007635,-0.007633587786259542,0.0009021759033203125
-0.015267175572519083,-3.5343511450381677,0.0,0.0009016990661621094
0.06870229007633588,-3.435114503816794,0.022900763358778626,0.0009016990661621094
0.13740458015267176,-3.450381679389313,-0.007633587786259542,0.0009014606475830078
0.08396946564885496,-3.427480916030534,-0.07633587786259542,0.0009026527404785156
0.007633587786259542,-3.404580152671756,-0.12213740458015267,0.0009019374847412109
-0.022900763358778626,-3.5114503816793894,-0.09923664122137404,0.0009036064147949219
-0.022900763358778626,-3.5267175572519083,0.13740458015267176,0.0009021759033203125
-0.06870229007633588,-3.549618320610687,0.12213740458015267,0.0009019374847412109
-0.030534351145038167,-3.549618320610687,0.06870229007633588,0.0009019374847412109
0.03816793893129771,-3.4732824427480917,0.05343511450381679,0.0009024143218994141
0.07633587786259542,-3.4198473282442747,-0.03816793893129771,0.0009024143218994141
0.07633587786259542,-3.5419847328244276,-0.007633587786259542,0.0009024143218994141
0.04580152671755725,-3.6564885496183206,0.12213740458015267,0.0009019374847412109
0.08396946564885496,-3.564885496183206,0.03816793893129771,0.0009014606475830078
0.022900763358778626,-3.366412213740458,-0.022900763358778626,0.0009016990661621094
-0.03816793893129771,-3.2595419847328246,0.0916030534351145,0.0009014606475830078
-0.030534351145038167,-3.381679389312977,0.20610687022900764,0.0009021759033203125
-0.015267175572519083,-3.4732824427480917,0.0,0.0009021759033203125
-0.05343511450381679,-3.4656488549618323,0.0,0.0009007453918457031
-0.0916030534351145,-3.3969465648854964,-0.0916030534351145,0.0009009838104248047
-0.061068702290076333,-3.50381679389313,-0.06870229007633588,0.0009024143218994141
-0.03816793893129771,-3.50381679389313,-0.0916030534351145,0.0009021759033203125
0.030534351145038167,-3.4885496183206106,-0.015267175572519083,0.0009036064147949219
0.07633587786259542,-3.4656488549618323,-0.05343511450381679,0.0009033679962158203
0.022900763358778626,-3.4732824427480917,-0.022900763358778626,0.0009014606475830078
-0.030534351145038167,-3.564885496183206,-0.03816793893129771,0.0009021759033203125
-0.022900763358778626,-3.5419847328244276,0.007633587786259542,0.0009024143218994141
0.03816793893129771,-3.564885496183206,0.0,0.0009021759033203125
-0.03816793893129771,-3.595419847328244,0.022900763358778626,0.0009002685546875
0.0,-3.6412213740458017,0.030534351145038167,0.000982046127319336
0.022900763358778626,-3.7938931297709924,0.0916030534351145,0.0009131431579589844
0.08396946564885496,-3.5801526717557253,0.13740458015267176,0.0009062290191650391
0.08396946564885496,-3.4427480916030535,0.1297709923664122,0.0009045600891113281
0.0,-3.5572519083969465,0.183206106870229,0.0009019374847412109
-0.061068702290076333,-3.5801526717557253,0.007633587786259542,0.0009009838104248047
-0.11450381679389313,-3.4732824427480917,-0.07633587786259542,0.0009036064147949219
-0.12213740458015267,-3.480916030534351,-0.13740458015267176,0.000904083251953125
-0.09923664122137404,-3.5419847328244276,-0.022900763358778626,0.0009019374847412109
0.007633587786259542,-3.5572519083969465,0.09923664122137404,0.0009028911590576172
0.007633587786259542,-3.480916030534351,0.15267175572519084,0.0009019374847412109
-0.007633587786259542,-3.4885496183206106,0.007633587786259542,0.0009160041809082031
0.0,-3.6030534351145036,0.007633587786259542,0.0009753704071044922
0.0,-3.6412213740458017,0.0,0.0009050369262695312
0.03816793893129771,-3.435114503816794,0.030534351145038167,0.0009331703186035156
0.05343511450381679,-3.3893129770992365,0.0,0.0009088516235351562
-0.04580152671755725,-3.2977099236641223,0.022900763358778626,0.0009024143218994141
-0.0916030534351145,-3.351145038167939,-0.06870229007633588,0.0009038448333740234
-0.061068702290076333,-3.5419847328244276,-0.007633587786259542,0.0009024143218994141
0.03816793893129771,-3.648854961832061,-0.05343511450381679,0.0009031295776367188
0.061068702290076333,-3.6106870229007635,0.03816793893129771,0.0009031295776367188
-0.05343511450381679,-3.312977099236641,0.03816793893129771,0.0009016990661621094
0.03816793893129771,-3.351145038167939,0.061068702290076333,0.0009019374847412109
0.13740458015267176,-3.480916030534351,0.0916030534351145,0.0009016990661621094
0.015267175572519083,-3.6106870229007635,0.04580152671755725,0.0009045600891113281
-0.04580152671755725,-3.564885496183206,0.07633587786259542,0.0009050369262695312
-0.0916030534351145,-3.618320610687023,0.10687022900763359,0.0009019374847412109
-0.061068702290076333,-3.4656488549618323,0.12213740458015267,0.0009021759033203125
-0.022900763358778626,-3.4885496183206106,0.17557251908396945,0.0009026527404785156
-0.030534351145038167,-3.595419847328244,0.07633587786259542,0.0009036064147949219
0.030534351145038167,-3.549618320610687,-0.030534351145038167,0.0009021759033203125
0.015267175572519083,-3.427480916030534,0.015267175572519083,0.0009021759033203125
0.07633587786259542,-3.450381679389313,0.11450381679389313,0.0009021759033203125
0.09923664122137404,-3.519083969465649,0.030534351145038167,0.0009021759033203125
0.08396946564885496,-3.4656488549618323,0.03816793893129771,0.0009028911590576172
0.030534351145038167,-3.564885496183206,0.0,0.0009026527404785156
-0.10687022900763359,-3.5114503816793894,-0.1450381679389313,0.0009000301361083984
-0.07633587786259542,-3.381679389312977,-0.1297709923664122,0.0009026527404785156
-0.12213740458015267,-3.404580152671756,-0.09923664122137404,0.0009021759033203125
-0.10687022900763359,-3.381679389312977,0.04580152671755725,0.0009024143218994141
0.007633587786259542,-3.5114503816793894,0.022900763358778626,0.0009024143218994141
0.0,-3.3282442748091605,0.0916030534351145,0.0009024143218994141
0.0,-3.16793893129771,0.015267175572519083,0.0009186267852783203
-0.061068702290076333,-3.3587786259541983,-0.08396946564885496,0.0009019374847412109
-0.13740458015267176,-3.519083969465649,-0.21374045801526717,0.0009028911590576172
-0.0916030534351145,-3.5114503816793894,-0.09923664122137404,0.0009019374847412109
0.007633587786259542,-3.49618320610687,-0.030534351145038167,0.0009021759033203125
0.0,-3.5114503816793894,0.10687022900763359,0.0009038448333740234
-0.08396946564885496,-3.3893129770992365,0.26717557251908397,0.0008997917175292969
-0.1984732824427481,-3.427480916030534,0.16030534351145037,0.0009024143218994141
-0.16793893129770993,-3.4732824427480917,-0.022900763358778626,0.0009021759033203125
-0.07633587786259542,-3.3435114503816794,-0.07633587786259542,0.0009038448333740234
-0.022900763358778626,-3.2519083969465647,-0.08396946564885496,0.0009016990661621094
0.09923664122137404,-3.450381679389313,-0.10687022900763359,0.0009057521820068359
0.0,-3.6030534351145036,-0.0916030534351145,0.0009002685546875
-0.20610687022900764,-3.572519083969466,0.0916030534351145,0.0009000301361083984
-0.22137404580152673,-3.618320610687023,0.16030534351145037,0.0009031295776367188
0.015267175572519083,-3.549618320610687,0.007633587786259542,0.0009014606475830078
0.2366412213740458,-3.4885496183206106,0.007633587786259542,0.0009014606475830078
0.17557251908396945,-3.5267175572519083,-0.07633587786259542,0.0009016990661621094
0.1297709923664122,-3.6412213740458017,0.03816793893129771,0.0009021759033203125
0.11450381679389313,-3.5114503816793894,0.015267175572519083,0.0009012222290039062
0.0,-3.3435114503816794,0.07633587786259542,0.0009021759033203125
0.007633587786259542,-3.3587786259541983,0.061068702290076333,0.0008997917175292969
0.0916030534351145,-3.33587786259542,-0.030534351145038167,0.0009021759033203125
0.06870229007633588,-3.519083969465649,-0.11450381679389313,0.0009031295776367188
0.1297709923664122,-3.5877862595419847,-0.05343511450381679,0.0009014606475830078
0.04580152671755725,-3.5267175572519083,-0.10687022900763359,0.0009016990661621094
0.030534351145038167,-3.5801526717557253,0.08396946564885496,0.0009021759033203125
-0.061068702290076333,-3.5114503816793894,0.16030534351145037,0.0009021759033203125
-0.13740458015267176,-3.427480916030534,0.05343511450381679,0.0009026527404785156
-0.08396946564885496,-3.5114503816793894,0.030534351145038167,0.0009024143218994141
0.030534351145038167,-3.648854961832061,0.09923664122137404,0.0009019374847412109
0.2366412213740458,-3.618320610687023,0.07633587786259542,0.0009026527404785156
0.15267175572519084,-3.50381679389313,0.19083969465648856,0.0009007453918457031
-0.05343511450381679,-3.4580152671755724,0.09923664122137404,0.0009009838104248047
-0.06870229007633588,-3.4580152671755724,0.08396946564885496,0.0009021759033203125
-0.061068702290076333,-3.5801526717557253,0.030534351145038167,0.0009028911590576172
0.007633587786259542,-3.6259541984732824,-0.1450381679389313,0.0009028911590576172
0.0916030534351145,-3.6564885496183206,-0.07633587786259542,0.0009019374847412109
0.007633587786259542,-3.5343511450381677,0.022900763358778626,0.0009019374847412109
0.0,-3.2977099236641223,-0.015267175572519083,0.0009019374847412109
0.022900763358778626,-3.2977099236641223,-0.13740458015267176,0.0009005069732666016
0.22137404580152673,-3.282442748091603,0.007633587786259542,0.0009019374847412109
0.15267175572519084,-3.572519083969466,0.007633587786259542,0.0009016990661621094
-0.061068702290076333,-3.732824427480916,0.15267175572519084,0.0009019374847412109
-0.11450381679389313,-3.633587786259542,0.0,0.0009019374847412109
-0.08396946564885496,-3.5114503816793894,0.16793893129770993,0.0009012222290039062
-0.09923664122137404,-3.3969465648854964,0.3511450381679389,0.0009021759033203125
-0.007633587786259542,-3.404580152671756,0.3053435114503817,0.0009016990661621094
0.015267175572519083,-3.3969465648854964,0.06870229007633588,0.0009019374847412109
-0.015267175572519083,-3.3969465648854964,-0.03816793893129771,0.0009021759033203125
0.04580152671755725,-3.3969465648854964,-0.13740458015267176,0.0009021759033203125
-0.03816793893129771,-3.5267175572519083,-0.06870229007633588,0.0009033679962158203
-0.12213740458015267,-3.6030534351145036,0.1450381679389313,0.0009026527404785156
-0.061068702290076333,-3.50381679389313,0.21374045801526717,0.0009171962738037109
0.11450381679389313,-3.4198473282442747,0.16030534351145037,0.0009033679962158203
0.030534351145038167,-3.5572519083969465,0.04580152671755725,0.0009019374847412109
-0.09923664122137404,-3.618320610687023,0.0,0.0009019374847412109
0.007633587786259542,-3.572519083969466,0.08396946564885496,0.0009002685546875
0.04580152671755725,-3.480916030534351,0.007633587786259542,0.0009026527404785156
0.12213740458015267,-3.450381679389313,-0.07633587786259542,0.0010640621185302734
0.04580152671755725,-3.381679389312977,0.05343511450381679,0.0009102821350097656
0.05343511450381679,-3.435114503816794,0.15267175572519084,0.0009036064147949219
0.030534351145038167,-3.49618320610687,0.17557251908396945,0.0009038448333740234
0.06870229007633588,-3.5572519083969465,0.007633587786259542,0.0009016990661621094
0.061068702290076333,-3.5572519083969465,0.061068702290076333,0.0009024143218994141
-0.06870229007633588,-3.4122137404580153,-0.0916030534351145,0.0009019374847412109
-0.10687022900763359,-3.4427480916030535,-0.04580152671755725,0.0009028911590576172
-0.11450381679389313,-3.3282442748091605,0.022900763358778626,0.0009033679962158203
-0.030534351145038167,-3.3282442748091605,0.22900763358778625,0.0009019374847412109
0.015267175572519083,-3.3740458015267176,0.13740458015267176,0.0009024143218994141
0.17557251908396945,-3.519083969465649,0.21374045801526717,0.0009131431579589844
0.15267175572519084,-3.5114503816793894,0.1297709923664122,0.0009064674377441406
0.0916030534351145,-3.6259541984732824,0.06870229007633588,0.0009057521820068359
0.15267175572519084,-3.7251908396946565,0.1297709923664122,0.0009016990661621094
0.17557251908396945,-3.7022900763358777,0.12213740458015267,0.0009021759033203125
0.0916030534351145,-3.4885496183206106,0.04580152671755725,0.0009031295776367188
0.12213740458015267,-3.3053435114503817,0.15267175572519084,0.0009021759033203125
0.13740458015267176,-3.3893129770992365,0.022900763358778626,0.0009024143218994141
0.06870229007633588,-3.5572519083969465,-0.015267175572519083,0.0009014606475830078
-0.015267175572519083,-3.648854961832061,-0.08396946564885496,0.0009026527404785156
0.0,-3.618320610687023,-0.12213740458015267,0.000904083251953125
0.007633587786259542,-3.618320610687023,-0.12213740458015267,0.0009005069732666016
-0.11450381679389313,-3.633587786259542,0.007633587786259542,0.0009024143218994141
-0.04580152671755725,-3.5343511450381677,0.015267175572519083,0.0009024143218994141
0.0,-3.312977099236641,0.0,0.0009026527404785156
-0.061068702290076333,-3.33587786259542,0.03816793893129771,0.0008976459503173828
-0.05343511450381679,-3.519083969465649,-0.06870229007633588,0.0009016990661621094
0.0,-3.5877862595419847,0.0,0.0009021759033203125
0.007633587786259542,-3.5267175572519083,-0.007633587786259542,0.0008985996246337891
0.030534351145038167,-3.404580152671756,0.05343511450381679,0.0009033679962158203
-0.03816793893129771,-3.50381679389313,0.13740458015267176,0.0009014606475830078
-0.05343511450381679,-3.5572519083969465,0.19083969465648856,0.0009026527404785156
-0.015267175572519083,-3.549618320610687,-0.15267175572519084,0.0009033679962158203
0.12213740458015267,-3.5419847328244276,0.007633587786259542,0.0009028911590576172
0.09923664122137404,-3.5114503816793894,0.07633587786259542,0.0009016990661621094
0.0,-3.50381679389313,0.030534351145038167,0.0009021759033203125
-0.007633587786259542,-3.564885496183206,-0.07633587786259542,0.0009005069732666016
-0.03816793893129771,-3.427480916030534,-0.0916030534351145,0.0009036064147949219
-0.03816793893129771,-3.2748091603053435,-0.015267175572519083,0.0009021759033203125
-0.05343511450381679,-3.33587786259542,0.1297709923664122,0.0009026527404785156
-0.015267175572519083,-3.3282442748091605,0.1297709923664122,0.0009021759033203125
0.07633587786259542,-3.366412213740458,0.26717557251908397,0.0009024143218994141
0.06870229007633588,-3.564885496183206,0.17557251908396945,0.0009031295776367188
0.061068702290076333,-3.6106870229007635,0.03816793893129771,0.0009014606475830078
0.007633587786259542,-3.5114503816793894,-0.03816793893129771,0.0009019374847412109
0.05343511450381679,-3.3053435114503817,-0.10687022900763359,0.0009024143218994141
-0.061068702290076333,-3.4580152671755724,-0.061068702290076333,0.0009033679962158203
-0.1297709923664122,-3.4580152671755724,-0.007633587786259542,0.0009021759033203125
-0.04580152671755725,-3.4580152671755724,0.06870229007633588,0.0009021759033203125
-0.0916030534351145,-3.366412213740458,0.030534351145038167,0.0009019374847412109
-0.022900763358778626,-3.16793893129771,-0.16030534351145037,0.0009021759033203125
0.007633587786259542,-3.2748091603053435,-0.10687022900763359,0.0009033679962158203
0.03816793893129771,-3.4122137404580153,-0.06870229007633588,0.0009024143218994141
0.12213740458015267,-3.549618320610687,0.03816793893129771,0.0009021759033203125
0.06870229007633588,-3.549618320610687,0.015267175572519083,0.0009012222290039062
0.1297709923664122,-3.5343511450381677,0.022900763358778626,0.0009019374847412109
