emg_0,emg_1,emg_2,emg_3,emg_4,acc_x,acc_y,acc_z,gyro_x,gyro_y,gyro_z,dt
1202,0.146728515625,-0.0465087890625,-1.1861572265625,0.19083969465648856,-3.3206106870229006,0.015267175572519083,0.5386261940002441
1162,0.154541015625,-0.0428466796875,-1.1959228515625,0.007633587786259542,-3.3435114503816794,0.04580152671755725,0.0025453567504882812
1247,0.151611328125,-0.0452880859375,-1.1900634765625,-0.030534351145038167,-3.5343511450381677,-0.007633587786259542,0.0024428367614746094
1311,0.152587890625,-0.0430908203125,-1.1973876953125,0.16793893129770993,-3.3435114503816794,0.05343511450381679,0.002328634262084961
1277,0.148193359375,-0.0438232421875,-1.1925048828125,0.0,-3.3053435114503817,0.061068702290076333,0.0023458003997802734
1235,0.155029296875,-0.0484619140625,-1.1944580078125,-0.11450381679389313,-3.5572519083969465,0.022900763358778626,0.0026900768280029297
1196,0.14697265625,-0.0452880859375,-1.1905517578125,0.022900763358778626,-3.381679389312977,0.1984732824427481,0.002710103988647461
1162,0.156982421875,-0.0467529296875,-1.1817626953125,-0.05343511450381679,-3.366412213740458,0.2366412213740458,0.0025522708892822266
1127,0.14990234375,-0.0433349609375,-1.1912841796875,-0.11450381679389313,-3.4732824427480917,-0.05343511450381679,0.00244903564453125
1093,0.15478515625,-0.0487060546875,-1.1895751953125,-0.04580152671755725,-3.49618320610687,0.1450381679389313,0.0024993419647216797
3159,0.157470703125,-0.0484619140625,-1.1917724609375,-0.08396946564885496,-3.2519083969465647,0.04580152671755725,0.0041713714599609375
3055,0.149169921875,-0.0501708984375,-1.1968994140625,-0.04580152671755725,-3.6259541984732824,0.0,0.002872943878173828
2950,0.150390625,-0.0469970703125,-1.1832275390625,-0.0916030534351145,-3.351145038167939,0.04580152671755725,0.002743959426879883
2853,0.148193359375,-0.0472412109375,-1.1883544921875,-0.20610687022900764,-3.282442748091603,0.16793893129770993,0.0026569366455078125
2773,0.15869140625,-0.0499267578125,-1.1859130859375,0.015267175572519083,-3.3969465648854964,-0.05343511450381679,0.0025153160095214844
2690,0.155029296875,-0.0533447265625,-1.1959228515625,-0.1984732824427481,-3.549618320610687,0.03816793893129771,0.0024690628051757812
2609,0.152587890625,-0.0511474609375,-1.1834716796875,-0.06870229007633588,-3.572519083969466,-0.04580152671755725,0.002509593963623047
2544,0.14794921875,-0.0535888671875,-1.1929931640625,-0.19083969465648856,-3.3587786259541983,0.03816793893129771,0.0024013519287109375
2483,0.152587890625,-0.0430908203125,-1.1947021484375,-0.25190839694656486,-3.4198473282442747,-0.0916030534351145,0.0023267269134521484
2428,0.154052734375,-0.0462646484375,-1.1881103515625,-0.19083969465648856,-3.4732824427480917,0.061068702290076333,0.0023317337036132812
2362,0.151611328125,-0.0469970703125,-1.1837158203125,-0.09923664122137404,-3.3740458015267176,-0.12213740458015267,0.002408742904663086
2298,0.15087890625,-0.0423583984375,-1.1810302734375,-0.1984732824427481,-3.6564885496183206,0.16030534351145037,0.0024907588958740234
2239,0.149658203125,-0.0506591796875,-1.1859130859375,0.007633587786259542,-3.4580152671755724,-0.3282442748091603,0.0026192665100097656
2182,0.14892578125,-0.0479736328125,-1.1890869140625,-0.1450381679389313,-3.404580152671756,0.007633587786259542,0.0023326873779296875
2125,0.156005859375,-0.0477294921875,-1.1871337890625,-0.030534351145038167,-3.6717557251908395,0.07633587786259542,0.002320528030395508
2075,0.1416015625,-0.0460205078125,-1.1883544921875,0.03816793893129771,-3.4732824427480917,0.007633587786259542,0.0023193359375
2027,0.15771484375,-0.0489501953125,-1.1883544921875,-0.1297709923664122,-3.519083969465649,0.13740458015267176,0.002539396286010742
1986,0.150634765625,-0.0511474609375,-1.1907958984375,-0.2366412213740458,-3.450381679389313,-0.1297709923664122,0.0025320053100585938
1932,0.150634765625,-0.0494384765625,-1.1983642578125,-0.10687022900763359,-3.3435114503816794,-0.06870229007633588,0.002817869186401367
1886,0.160400390625,-0.0443115234375,-1.1922607421875,-0.1450381679389313,-3.633587786259542,-0.061068702290076333,0.002452373504638672
1846,0.15234375,-0.0484619140625,-1.1917724609375,-0.16793893129770993,-3.49618320610687,-0.183206106870229,0.002450227737426758
1804,0.1513671875,-0.0457763671875,-1.1964111328125,0.061068702290076333,-3.519083969465649,0.007633587786259542,0.002352476119995117
1758,0.148681640625,-0.0474853515625,-1.1925048828125,-0.09923664122137404,-3.4885496183206106,-0.061068702290076333,0.002344846725463867
1722,0.149169921875,-0.0399169921875,-1.1929931640625,-0.10687022900763359,-3.854961832061069,-0.183206106870229,0.0023221969604492188
1693,0.145751953125,-0.0460205078125,-1.1939697265625,-0.061068702290076333,-3.49618320610687,-0.007633587786259542,0.0023179054260253906
1665,0.149169921875,-0.0496826171875,-1.1939697265625,-0.09923664122137404,-3.732824427480916,-0.022900763358778626,0.0023233890533447266
1629,0.15625,-0.0445556640625,-1.1900634765625,-0.19083969465648856,-3.480916030534351,-0.05343511450381679,0.0025856494903564453
1593,0.14697265625,-0.0465087890625,-1.1888427734375,-0.20610687022900764,-3.6793893129770994,0.19083969465648856,0.0023772716522216797
1559,0.158203125,-0.0460205078125,-1.1846923828125,-0.0916030534351145,-3.6564885496183206,-0.12213740458015267,0.0023186206817626953
1529,0.142333984375,-0.0479736328125,-1.1932373046875,-0.07633587786259542,-3.480916030534351,0.015267175572519083,0.0023162364959716797
1495,0.144775390625,-0.0421142578125,-1.1925048828125,-0.19083969465648856,-3.5267175572519083,-0.10687022900763359,0.0023162364959716797
1461,0.148681640625,-0.0418701171875,-1.1893310546875,0.061068702290076333,-3.4885496183206106,0.022900763358778626,0.0023314952850341797
1436,0.158935546875,-0.0479736328125,-1.1876220703125,-0.03816793893129771,-3.519083969465649,0.20610687022900764,0.002315044403076172
1415,0.15234375,-0.0462646484375,-1.1917724609375,-0.015267175572519083,-3.519083969465649,-0.07633587786259542,0.0023317337036132812
1394,0.1435546875,-0.0443115234375,-1.1888427734375,0.12213740458015267,-3.3893129770992365,-0.04580152671755725,0.002316713333129883
1361,0.153564453125,-0.0406494140625,-1.1817626953125,0.007633587786259542,-3.5114503816793894,0.0,0.0023195743560791016
1335,0.143798828125,-0.0418701171875,-1.1888427734375,-0.07633587786259542,-3.4427480916030535,-0.13740458015267176,0.0023193359375
1314,0.155517578125,-0.0462646484375,-1.1966552734375,-0.16793893129770993,-3.595419847328244,-0.183206106870229,0.002318859100341797
1290,0.15234375,-0.0447998046875,-1.1915283203125,-0.15267175572519084,-3.4198473282442747,0.0916030534351145,0.002318859100341797
1262,0.1533203125,-0.0455322265625,-1.1905517578125,0.13740458015267176,-3.450381679389313,-0.0916030534351145,0.002316713333129883
1235,0.150146484375,-0.0509033203125,-1.1917724609375,-0.19083969465648856,-3.3587786259541983,0.06870229007633588,0.002341032028198242
1276,0.14599609375,-0.0445556640625,-1.1861572265625,-0.10687022900763359,-3.6564885496183206,0.03816793893129771,0.002321958541870117
1254,0.1572265625,-0.0408935546875,-1.1922607421875,-0.22900763358778625,-3.3053435114503817,-0.08396946564885496,0.0023193359375
1235,0.1474609375,-0.0447998046875,-1.1968994140625,-0.06870229007633588,-3.4885496183206106,0.09923664122137404,0.0023186206817626953
1209,0.1474609375,-0.0496826171875,-1.1990966796875,-0.04580152671755725,-3.6259541984732824,0.12213740458015267,0.002317190170288086
1185,0.1474609375,-0.0457763671875,-1.1971435546875,0.007633587786259542,-3.3587786259541983,0.13740458015267176,0.002337932586669922
1167,0.152587890625,-0.0423583984375,-1.1842041015625,-0.030534351145038167,-3.404580152671756,-0.1297709923664122,0.0023179054260253906
1146,0.154052734375,-0.0469970703125,-1.1944580078125,-0.11450381679389313,-3.3206106870229006,-0.13740458015267176,0.002318859100341797
1126,0.146240234375,-0.0477294921875,-1.1905517578125,-0.21374045801526717,-3.3435114503816794,-0.19083969465648856,0.0023179054260253906
3033,0.153564453125,-0.0479736328125,-1.1927490234375,-0.09923664122137404,-3.618320610687023,-0.11450381679389313,0.0023183822631835938
2963,0.141357421875,-0.0499267578125,-1.1942138671875,0.03816793893129771,-3.4427480916030535,-0.030534351145038167,0.002499818801879883
2894,0.147216796875,-0.0447998046875,-1.1822509765625,-0.04580152671755725,-3.351145038167939,-0.06870229007633588,0.0023305416107177734
2821,0.150146484375,-0.0416259765625,-1.1824951171875,-0.1450381679389313,-3.5419847328244276,0.061068702290076333,0.0023193359375
2751,0.1474609375,-0.0433349609375,-1.1956787109375,-0.17557251908396945,-3.4427480916030535,0.0,0.0023186206817626953
2690,0.154541015625,-0.0472412109375,-1.1937255859375,-0.12213740458015267,-3.450381679389313,0.0,0.0023174285888671875
2633,0.154052734375,-0.0489501953125,-1.1888427734375,-0.04580152671755725,-3.50381679389313,0.04580152671755725,0.002317667007446289
2571,0.158935546875,-0.0579833984375,-1.1925048828125,-0.0916030534351145,-3.549618320610687,-0.030534351145038167,0.002317190170288086
2513,0.158935546875,-0.0418701171875,-1.1876220703125,0.0,-3.5267175572519083,0.08396946564885496,0.002318859100341797
2466,0.154296875,-0.0501708984375,-1.1851806640625,-0.05343511450381679,-3.183206106870229,-0.12213740458015267,0.0023157596588134766
2422,0.14453125,-0.0472412109375,-1.1893310546875,0.07633587786259542,-3.3740458015267176,-0.022900763358778626,0.0023183822631835938
2374,0.150146484375,-0.0506591796875,-1.1959228515625,0.007633587786259542,-3.519083969465649,0.05343511450381679,0.002317667007446289
2322,0.156494140625,-0.0467529296875,-1.1966552734375,-0.08396946564885496,-3.3740458015267176,0.0,0.002317190170288086
2269,0.151123046875,-0.0482177734375,-1.1898193359375,0.0,-3.5343511450381677,0.10687022900763359,0.0023419857025146484
2228,0.1572265625,-0.0443115234375,-1.1929931640625,-0.1297709923664122,-3.450381679389313,0.007633587786259542,0.002341747283935547
2182,0.155517578125,-0.0479736328125,-1.1881103515625,0.06870229007633588,-3.49618320610687,0.007633587786259542,0.002319812774658203
2137,0.15673828125,-0.0455322265625,-1.1895751953125,-0.007633587786259542,-3.5801526717557253,0.1297709923664122,0.0023183822631835938
2097,0.158203125,-0.0452880859375,-1.1900634765625,0.0,-3.427480916030534,0.1450381679389313,0.0023186206817626953
2064,0.146484375,-0.0487060546875,-1.1939697265625,-0.06870229007633588,-3.3969465648854964,0.0,0.002318859100341797
2033,0.157958984375,-0.0487060546875,-1.1883544921875,-0.007633587786259542,-3.5801526717557253,0.06870229007633588,0.002316713333129883
1995,0.154296875,-0.0472412109375,-1.1964111328125,0.030534351145038167,-3.50381679389313,0.1984732824427481,0.002319812774658203
1951,0.15283203125,-0.0469970703125,-1.1842041015625,-0.08396946564885496,-3.404580152671756,0.030534351145038167,0.0023162364959716797
1915,0.148681640625,-0.0474853515625,-1.1993408203125,0.04580152671755725,-3.519083969465649,-0.06870229007633588,0.0023179054260253906
1882,0.147216796875,-0.0487060546875,-1.1978759765625,-0.08396946564885496,-3.6030534351145036,-0.022900763358778626,0.002318143844604492
1847,0.15869140625,-0.0438232421875,-1.1888427734375,-0.08396946564885496,-3.732824427480916,-0.16030534351145037,0.0023186206817626953
1813,0.15625,-0.0447998046875,-1.1878662109375,-0.05343511450381679,-3.595419847328244,0.022900763358778626,0.002319812774658203
1788,0.14599609375,-0.0428466796875,-1.1864013671875,-0.04580152671755725,-3.5877862595419847,-0.03816793893129771,0.002317190170288086
1764,0.15087890625,-0.0450439453125,-1.1937255859375,0.061068702290076333,-3.6259541984732824,-0.10687022900763359,0.0023190975189208984
1738,0.150634765625,-0.0389404296875,-1.1866455078125,-0.12213740458015267,-3.4885496183206106,-0.007633587786259542,0.002317667007446289
1707,0.15380859375,-0.0401611328125,-1.1864013671875,-0.06870229007633588,-3.4580152671755724,0.06870229007633588,0.002318143844604492
1674,0.148193359375,-0.0465087890625,-1.1873779296875,0.061068702290076333,-3.5114503816793894,-0.09923664122137404,0.0023169517517089844
1647,0.15283203125,-0.0465087890625,-1.1893310546875,-0.11450381679389313,-3.427480916030534,0.04580152671755725,0.002354145050048828
1619,0.14892578125,-0.0445556640625,-1.1873779296875,-0.03816793893129771,-3.564885496183206,0.0,0.00232696533203125
1590,0.156494140625,-0.0423583984375,-1.1949462890625,-0.030534351145038167,-3.572519083969466,-0.17557251908396945,0.002313852310180664
1566,0.150634765625,-0.0428466796875,-1.1890869140625,-0.04580152671755725,-3.687022900763359,0.007633587786259542,0.0023186206817626953
1547,0.14306640625,-0.0484619140625,-1.1842041015625,-0.07633587786259542,-3.49618320610687,-0.015267175572519083,0.0023169517517089844
1530,0.155029296875,-0.0472412109375,-1.1842041015625,-0.007633587786259542,-3.450381679389313,-0.25190839694656486,0.0023174285888671875
1511,0.142333984375,-0.0399169921875,-1.1898193359375,-0.015267175572519083,-3.5877862595419847,-0.022900763358778626,0.0023179054260253906
1485,0.152587890625,-0.0440673828125,-1.1917724609375,-0.16030534351145037,-3.4198473282442747,0.13740458015267176,0.0023164749145507812
1462,0.154052734375,-0.0416259765625,-1.1849365234375,0.022900763358778626,-3.717557251908397,-0.08396946564885496,0.002318859100341797
1441,0.151123046875,-0.0467529296875,-1.1898193359375,0.007633587786259542,-3.1908396946564888,0.022900763358778626,0.0023164749145507812
1416,0.15576171875,-0.0479736328125,-1.1859130859375,0.03816793893129771,-3.50381679389313,0.030534351145038167,0.0023183822631835938
1388,0.149658203125,-0.0462646484375,-1.1864013671875,-0.022900763358778626,-3.404580152671756,-0.1297709923664122,0.002317190170288086
1368,0.141845703125,-0.0496826171875,-1.1951904296875,0.03816793893129771,-3.5572519083969465,0.0,0.002317667007446289
1337,0.150634765625,-0.0494384765625,-1.1842041015625,-0.03816793893129771,-3.2977099236641223,0.0,0.0023565292358398438
1325,0.148681640625,-0.0406494140625,-1.1949462890625,-0.09923664122137404,-3.3893129770992365,-0.183206106870229,0.0023272037506103516
1303,0.1484375,-0.0472412109375,-1.1949462890625,-0.21374045801526717,-3.618320610687023,-0.015267175572519083,0.0023200511932373047
1284,0.15234375,-0.0423583984375,-1.1937255859375,0.0,-3.4122137404580153,0.11450381679389313,0.0023179054260253906
1268,0.14892578125,-0.0445556640625,-1.1929931640625,-0.08396946564885496,-3.3969465648854964,-0.19083969465648856,0.002316713333129883
1252,0.158447265625,-0.0421142578125,-1.1942138671875,-0.12213740458015267,-3.5877862595419847,0.061068702290076333,0.0023183822631835938
1231,0.14111328125,-0.0445556640625,-1.1844482421875,-0.12213740458015267,-3.3053435114503817,0.25190839694656486,0.002318143844604492
1208,0.158935546875,-0.0489501953125,-1.1939697265625,-0.12213740458015267,-3.435114503816794,0.030534351145038167,0.0023186206817626953
2741,0.150634765625,-0.0408935546875,-1.1964111328125,0.03816793893129771,-3.450381679389313,0.04580152671755725,0.002317190170288086
2675,0.15087890625,-0.0423583984375,-1.1885986328125,0.007633587786259542,-3.2977099236641223,0.022900763358778626,0.002317190170288086
2615,0.148193359375,-0.0452880859375,-1.1859130859375,-0.10687022900763359,-3.3435114503816794,0.10687022900763359,0.002317190170288086
2551,0.159912109375,-0.0467529296875,-1.1849365234375,0.0,-3.351145038167939,-0.030534351145038167,0.0024657249450683594
2493,0.14794921875,-0.0491943359375,-1.1954345703125,-0.10687022900763359,-3.404580152671756,0.0,0.0023193359375
2443,0.157958984375,-0.0430908203125,-1.1917724609375,-0.03816793893129771,-3.480916030534351,0.007633587786259542,0.002315998077392578
2391,0.16064453125,-0.0460205078125,-1.1824951171875,-0.26717557251908397,-3.381679389312977,0.11450381679389313,0.0023183822631835938
2339,0.146728515625,-0.0474853515625,-1.1903076171875,0.015267175572519083,-3.519083969465649,0.007633587786259542,0.0023183822631835938
2294,0.15283203125,-0.0460205078125,-1.1895751953125,0.015267175572519083,-3.6106870229007635,0.0916030534351145,0.0023179054260253906
2255,0.149658203125,-0.0518798828125,-1.1917724609375,-0.19083969465648856,-3.480916030534351,0.183206106870229,0.0023186206817626953
2219,0.15185546875,-0.0501708984375,-1.1878662109375,-0.022900763358778626,-3.4885496183206106,0.030534351145038167,0.0023164749145507812
2174,0.151123046875,-0.0523681640625,-1.1912841796875,-0.1450381679389313,-3.2519083969465647,0.07633587786259542,0.002470731735229492
2131,0.151611328125,-0.0501708984375,-1.1864013671875,0.030534351145038167,-3.5419847328244276,0.05343511450381679,0.002326488494873047
2088,0.150390625,-0.0457763671875,-1.1878662109375,0.05343511450381679,-3.3893129770992365,-0.10687022900763359,0.0023183822631835938
2049,0.14697265625,-0.0472412109375,-1.1907958984375,-0.08396946564885496,-3.6793893129770994,-0.061068702290076333,0.002317667007446289
2012,0.1455078125,-0.0487060546875,-1.1949462890625,-0.12213740458015267,-3.49618320610687,-0.07633587786259542,0.002317667007446289
1975,0.15771484375,-0.0469970703125,-1.1834716796875,-0.05343511450381679,-3.3435114503816794,0.03816793893129771,0.002318859100341797
1948,0.15771484375,-0.0472412109375,-1.1895751953125,-0.11450381679389313,-3.5267175572519083,-0.15267175572519084,0.0023179054260253906
1923,0.1533203125,-0.0501708984375,-1.1961669921875,-0.07633587786259542,-3.6106870229007635,-0.06870229007633588,0.0023183822631835938
1897,0.157958984375,-0.0467529296875,-1.1910400390625,-0.09923664122137404,-3.5877862595419847,-0.061068702290076333,0.0023174285888671875
1863,0.16015625,-0.0479736328125,-1.1812744140625,-0.10687022900763359,-3.5877862595419847,0.007633587786259542,0.0023186206817626953
1827,0.15087890625,-0.0499267578125,-1.1832275390625,0.07633587786259542,-3.4427480916030535,-0.015267175572519083,0.002318143844604492
1798,0.1533203125,-0.0469970703125,-1.1842041015625,-0.0916030534351145,-3.519083969465649,0.007633587786259542,0.002317190170288086
1769,0.158203125,-0.0440673828125,-1.1859130859375,-0.08396946564885496,-3.5877862595419847,-0.16030534351145037,0.0023179054260253906
1739,0.149658203125,-0.0457763671875,-1.1944580078125,-0.015267175572519083,-3.282442748091603,0.0,0.0023174285888671875
1714,0.161865234375,-0.0408935546875,-1.1810302734375,-0.21374045801526717,-3.7404580152671754,0.007633587786259542,0.0023162364959716797
1692,0.149658203125,-0.0489501953125,-1.1807861328125,-0.08396946564885496,-3.717557251908397,0.09923664122137404,0.002317190170288086
1673,0.15625,-0.0513916015625,-1.1871337890625,-0.06870229007633588,-3.3740458015267176,-0.015267175572519083,0.002317667007446289
1647,0.148681640625,-0.0474853515625,-1.1881103515625,-0.061068702290076333,-3.519083969465649,-0.030534351145038167,0.0023174285888671875
1621,0.1591796875,-0.0504150390625,-1.1815185546875,0.007633587786259542,-3.2442748091603053,-0.03816793893129771,0.002329111099243164
1596,0.14794921875,-0.0435791015625,-1.1885986328125,0.0,-3.6793893129770994,-0.06870229007633588,0.0023241043090820312
1574,0.15087890625,-0.0465087890625,-1.1939697265625,-0.022900763358778626,-3.4732824427480917,0.05343511450381679,0.002317667007446289
1547,0.154296875,-0.0460205078125,-1.1873779296875,-0.11450381679389313,-3.50381679389313,-0.06870229007633588,0.0023183822631835938
1521,0.145263671875,-0.0494384765625,-1.1903076171875,-0.1450381679389313,-3.4198473282442747,0.0,0.0023179054260253906
1505,0.160888671875,-0.0450439453125,-1.1949462890625,-0.07633587786259542,-3.7099236641221376,-0.022900763358778626,0.0023162364959716797
1492,0.144287109375,-0.0535888671875,-1.1837158203125,-0.03816793893129771,-3.3740458015267176,-0.06870229007633588,0.0023186206817626953
1480,0.150390625,-0.0406494140625,-1.1951904296875,-0.19083969465648856,-3.381679389312977,-0.030534351145038167,0.002318143844604492
1456,0.146728515625,-0.0494384765625,-1.1861572265625,-0.007633587786259542,-3.3282442748091605,0.007633587786259542,0.0023179054260253906
1431,0.153564453125,-0.0477294921875,-1.1800537109375,-0.09923664122137404,-3.4885496183206106,-0.11450381679389313,0.002317667007446289
1414,0.152099609375,-0.0450439453125,-1.1937255859375,-0.061068702290076333,-3.427480916030534,-0.06870229007633588,0.0023186206817626953
1396,0.1494140625,-0.0435791015625,-1.1849365234375,-0.007633587786259542,-3.6259541984732824,0.11450381679389313,0.0023186206817626953
1373,0.147705078125,-0.0413818359375,-1.1844482421875,-0.007633587786259542,-3.5114503816793894,0.16793893129770993,0.002316713333129883
1353,0.15673828125,-0.0469970703125,-1.1888427734375,-0.015267175572519083,-3.427480916030534,0.03816793893129771,0.0023186206817626953
1351,0.15625,-0.0423583984375,-1.1883544921875,0.007633587786259542,-3.5419847328244276,-0.08396946564885496,0.0023174285888671875
1330,0.145751953125,-0.0452880859375,-1.1851806640625,-0.007633587786259542,-3.4732824427480917,0.015267175572519083,0.0023183822631835938
1315,0.146484375,-0.0460205078125,-1.1944580078125,-0.1297709923664122,-3.4198473282442747,0.015267175572519083,0.0023183822631835938
1294,0.150634765625,-0.0430908203125,-1.1898193359375,-0.16030534351145037,-3.427480916030534,0.13740458015267176,0.002317667007446289
1275,0.1494140625,-0.0499267578125,-1.1873779296875,0.030534351145038167,-3.351145038167939,-0.007633587786259542,0.0023403167724609375
1260,0.14599609375,-0.0457763671875,-1.1854248046875,-0.15267175572519084,-3.4656488549618323,-0.03816793893129771,0.002324819564819336
1243,0.151123046875,-0.0494384765625,-1.1859130859375,-0.25190839694656486,-3.3206106870229006,-0.04580152671755725,0.002318859100341797
1227,0.157470703125,-0.0413818359375,-1.1834716796875,-0.1984732824427481,-3.2748091603053435,0.007633587786259542,0.0023179054260253906
2289,0.158935546875,-0.0443115234375,-1.1871337890625,-0.20610687022900764,-3.4656488549618323,0.15267175572519084,0.002317667007446289
2864,0.146240234375,-0.0484619140625,-1.1861572265625,-0.08396946564885496,-3.5114503816793894,-0.08396946564885496,0.0023193359375
2805,0.1513671875,-0.0460205078125,-1.2000732421875,-0.1297709923664122,-3.450381679389313,-0.15267175572519084,0.002315998077392578
2743,0.1533203125,-0.0472412109375,-1.1920166015625,-0.0916030534351145,-3.549618320610687,0.007633587786259542,0.0023179054260253906
2683,0.150390625,-0.0462646484375,-1.1837158203125,-0.2748091603053435,-3.404580152671756,0.015267175572519083,0.002316713333129883
2623,0.14990234375,-0.0433349609375,-1.1915283203125,-0.08396946564885496,-3.6259541984732824,0.05343511450381679,0.002316713333129883
2571,0.1455078125,-0.0455322265625,-1.1910400390625,-0.16030534351145037,-3.2748091603053435,-0.022900763358778626,0.0023169517517089844
2518,0.148193359375,-0.0494384765625,-1.1925048828125,0.022900763358778626,-3.572519083969466,0.06870229007633588,0.002318143844604492
2461,0.154296875,-0.0457763671875,-1.1900634765625,-0.12213740458015267,-3.381679389312977,0.0,0.0023179054260253906
2419,0.150146484375,-0.0426025390625,-1.1959228515625,-0.15267175572519084,-3.595419847328244,0.007633587786259542,0.0023162364959716797
2382,0.151611328125,-0.0484619140625,-1.1881103515625,0.07633587786259542,-3.5114503816793894,-0.015267175572519083,0.002317667007446289
2343,0.15576171875,-0.0487060546875,-1.1873779296875,-0.16030534351145037,-3.427480916030534,0.1297709923664122,0.0023174285888671875
2295,0.153076171875,-0.0469970703125,-1.1917724609375,-0.08396946564885496,-3.5572519083969465,0.0916030534351145,0.002317190170288086
2249,0.1572265625,-0.0469970703125,-1.1973876953125,-0.1297709923664122,-3.49618320610687,-0.0916030534351145,0.002317190170288086
2211,0.161865234375,-0.0469970703125,-1.1937255859375,-0.09923664122137404,-3.4198473282442747,-0.022900763358778626,0.0023162364959716797
2173,0.14697265625,-0.0469970703125,-1.1966552734375,-0.25190839694656486,-3.4656488549618323,-0.05343511450381679,0.0023183822631835938
2134,0.15673828125,-0.0484619140625,-1.1878662109375,-0.015267175572519083,-3.435114503816794,0.022900763358778626,0.0023174285888671875
2096,0.149658203125,-0.0455322265625,-1.1854248046875,-0.20610687022900764,-3.5343511450381677,0.09923664122137404,0.0023174285888671875
2065,0.15283203125,-0.0513916015625,-1.1898193359375,-0.0916030534351145,-3.351145038167939,-0.10687022900763359,0.0023174285888671875
2037,0.1484375,-0.0469970703125,-1.1893310546875,-0.007633587786259542,-3.633587786259542,-0.030534351145038167,0.0023207664489746094
2007,0.159423828125,-0.0531005859375,-1.1807861328125,-0.10687022900763359,-3.404580152671756,0.0,0.0024874210357666016
1967,0.150146484375,-0.0494384765625,-1.1881103515625,0.0,-3.5343511450381677,-0.06870229007633588,0.0024678707122802734
1935,0.146484375,-0.0528564453125,-1.1839599609375,-0.1984732824427481,-3.5801526717557253,0.08396946564885496,0.0023250579833984375
1906,0.15771484375,-0.0479736328125,-1.1905517578125,-0.08396946564885496,-3.5267175572519083,-0.015267175572519083,0.0023190975189208984
1873,0.1513671875,-0.0511474609375,-1.1944580078125,-0.07633587786259542,-3.4198473282442747,0.007633587786259542,0.002321481704711914
1839,0.15185546875,-0.0474853515625,-1.1910400390625,-0.22137404580152673,-3.5343511450381677,-0.007633587786259542,0.002318859100341797
1818,0.159423828125,-0.0489501953125,-1.1856689453125,-0.06870229007633588,-3.351145038167939,-0.061068702290076333,0.002317190170288086
1799,0.14990234375,-0.0501708984375,-1.1920166015625,-0.022900763358778626,-3.6259541984732824,0.03816793893129771,0.0023190975189208984
1778,0.153564453125,-0.0396728515625,-1.1961669921875,-0.04580152671755725,-3.5114503816793894,-0.061068702290076333,0.0023179054260253906
1749,0.15087890625,-0.0506591796875,-1.1951904296875,-0.030534351145038167,-3.6106870229007635,0.05343511450381679,0.002318859100341797
1717,0.158203125,-0.0452880859375,-1.1954345703125,-0.07633587786259542,-3.50381679389313,0.061068702290076333,0.0023174285888671875
1691,0.150634765625,-0.0516357421875,-1.1939697265625,-0.1297709923664122,-3.49618320610687,0.061068702290076333,0.0023174285888671875
1663,0.1455078125,-0.0526123046875,-1.1922607421875,-0.12213740458015267,-3.4122137404580153,0.030534351145038167,0.002317667007446289
1635,0.1572265625,-0.0521240234375,-1.1859130859375,-0.05343511450381679,-3.4656488549618323,-0.16793893129770993,0.002317190170288086
1611,0.149658203125,-0.0469970703125,-1.1954345703125,-0.022900763358778626,-3.5343511450381677,0.1297709923664122,0.0023186206817626953
1595,0.156005859375,-0.0469970703125,-1.1898193359375,0.0,-3.312977099236641,-0.03816793893129771,0.002317667007446289
1583,0.152587890625,-0.0404052734375,-1.1822509765625,-0.07633587786259542,-3.381679389312977,0.007633587786259542,0.0023157596588134766
1565,0.15576171875,-0.0435791015625,-1.1885986328125,0.04580152671755725,-3.6412213740458017,-0.1450381679389313,0.002317190170288086
1538,0.14892578125,-0.0401611328125,-1.1907958984375,-0.1450381679389313,-3.5114503816793894,-0.13740458015267176,0.002362966537475586
1513,0.149658203125,-0.0509033203125,-1.1922607421875,-0.04580152671755725,-3.427480916030534,0.1297709923664122,0.0023636817932128906
1494,0.156494140625,-0.0457763671875,-1.1888427734375,-0.08396946564885496,-3.5343511450381677,0.08396946564885496,0.0023212432861328125
1470,0.148193359375,-0.0433349609375,-1.1885986328125,-0.11450381679389313,-3.5877862595419847,-0.183206106870229,0.0023186206817626953
1448,0.150146484375,-0.0460205078125,-1.1949462890625,-0.15267175572519084,-3.3969465648854964,0.007633587786259542,0.0023195743560791016
1432,0.152099609375,-0.0435791015625,-1.1932373046875,-0.1450381679389313,-3.4656488549618323,0.0916030534351145,0.002318143844604492
1403,0.154541015625,-0.0416259765625,-1.1915283203125,0.007633587786259542,-3.7099236641221376,0.061068702290076333,0.002346515655517578
1392,0.154052734375,-0.0460205078125,-1.1912841796875,-0.03816793893129771,-3.5114503816793894,-0.061068702290076333,0.0023331642150878906
1372,0.15185546875,-0.0457763671875,-1.1917724609375,-0.13740458015267176,-3.5877862595419847,-0.06870229007633588,0.0023195743560791016
1351,0.149169921875,-0.0487060546875,-1.1949462890625,-0.03816793893129771,-3.4427480916030535,0.061068702290076333,0.0023193359375
1334,0.15673828125,-0.0460205078125,-1.1873779296875,-0.007633587786259542,-3.5267175572519083,0.12213740458015267,0.0023190975189208984
1315,0.149658203125,-0.0469970703125,-1.1898193359375,-0.10687022900763359,-3.5114503816793894,-0.10687022900763359,0.0023190975189208984
1295,0.14697265625,-0.0443115234375,-1.1888427734375,-0.05343511450381679,-3.351145038167939,0.10687022900763359,0.0023500919342041016
1277,0.14501953125,-0.0491943359375,-1.1956787109375,-0.007633587786259542,-3.2977099236641223,-0.21374045801526717,0.002319812774658203
2479,0.14794921875,-0.0467529296875,-1.1917724609375,-0.13740458015267176,-3.572519083969466,0.12213740458015267,0.002318859100341797
2435,0.154541015625,-0.0435791015625,-1.1922607421875,-0.007633587786259542,-3.480916030534351,-0.07633587786259542,0.002318143844604492
2390,0.1533203125,-0.0509033203125,-1.1883544921875,-0.022900763358778626,-3.381679389312977,-0.015267175572519083,0.0023174285888671875
2339,0.150146484375,-0.0438232421875,-1.1878662109375,0.007633587786259542,-3.404580152671756,0.07633587786259542,0.0023272037506103516
2286,0.1455078125,-0.0494384765625,-1.1939697265625,0.0,-3.5267175572519083,-0.11450381679389313,0.0023200511932373047
2242,0.149169921875,-0.0506591796875,-1.1927490234375,-0.06870229007633588,-3.5801526717557253,0.2824427480916031,0.0023190975189208984
2196,0.150390625,-0.0462646484375,-1.1895751953125,-0.05343511450381679,-3.381679389312977,-0.007633587786259542,0.0023305416107177734
2152,0.144287109375,-0.0430908203125,-1.1883544921875,-0.1297709923664122,-3.7251908396946565,0.13740458015267176,0.002317667007446289
2114,0.157470703125,-0.0438232421875,-1.1868896484375,-0.0916030534351145,-3.2977099236641223,0.022900763358778626,0.0023179054260253906
2079,0.157958984375,-0.0465087890625,-1.1954345703125,-0.061068702290076333,-3.404580152671756,-0.0916030534351145,0.0023179054260253906
2050,0.154296875,-0.0438232421875,-1.1871337890625,-0.1450381679389313,-3.366412213740458,-0.06870229007633588,0.0023200511932373047
2015,0.1494140625,-0.0462646484375,-1.1878662109375,0.0,-3.3282442748091605,0.0,0.002318859100341797
1972,0.150634765625,-0.0457763671875,-1.1932373046875,-0.22900763358778625,-3.2748091603053435,0.03816793893129771,0.0023124217987060547
1934,0.15771484375,-0.0467529296875,-1.1832275390625,-0.183206106870229,-3.5419847328244276,0.05343511450381679,0.002318859100341797
1901,0.15478515625,-0.0430908203125,-1.1949462890625,-0.15267175572519084,-3.435114503816794,-0.09923664122137404,0.002317667007446289
1868,0.14990234375,-0.0504150390625,-1.1917724609375,-0.25190839694656486,-3.312977099236641,-0.1297709923664122,0.0023179054260253906
1834,0.148193359375,-0.0452880859375,-1.1905517578125,-0.05343511450381679,-3.4122137404580153,0.1450381679389313,0.002318143844604492
1811,0.150634765625,-0.0499267578125,-1.1907958984375,-0.10687022900763359,-3.4885496183206106,-0.08396946564885496,0.0023169517517089844
1790,0.162109375,-0.0433349609375,-1.1925048828125,-0.007633587786259542,-3.4122137404580153,0.11450381679389313,0.0023193359375
1770,0.14404296875,-0.0482177734375,-1.1895751953125,-0.09923664122137404,-3.2977099236641223,-0.03816793893129771,0.002316713333129883
1740,0.160888671875,-0.0418701171875,-1.1927490234375,-0.07633587786259542,-3.618320610687023,-0.09923664122137404,0.0023186206817626953
1708,0.14697265625,-0.0501708984375,-1.1878662109375,-0.16793893129770993,-3.3740458015267176,0.015267175572519083,0.0023174285888671875
1681,0.158203125,-0.0469970703125,-1.1968994140625,-0.007633587786259542,-3.4885496183206106,0.0,0.0023195743560791016
1654,0.1591796875,-0.0533447265625,-1.1942138671875,-0.15267175572519084,-3.3587786259541983,-0.31297709923664124,0.002317190170288086
1626,0.154296875,-0.0477294921875,-1.1900634765625,-0.08396946564885496,-3.50381679389313,0.11450381679389313,0.002318859100341797
1599,0.148681640625,-0.0494384765625,-1.1947021484375,-0.015267175572519083,-3.4580152671755724,0.04580152671755725,0.0023183822631835938
1581,0.15478515625,-0.0472412109375,-1.1929931640625,-0.1984732824427481,-3.3893129770992365,0.0916030534351145,0.0023179054260253906
1563,0.1552734375,-0.0418701171875,-1.1810302734375,0.007633587786259542,-3.519083969465649,-0.0916030534351145,0.002318143844604492
1545,0.14794921875,-0.0462646484375,-1.1927490234375,-0.06870229007633588,-3.2595419847328246,0.06870229007633588,0.0023381710052490234
1517,0.154052734375,-0.0465087890625,-1.1927490234375,-0.22900763358778625,-3.450381679389313,0.08396946564885496,0.0023202896118164062
1491,0.15673828125,-0.0516357421875,-1.1922607421875,-0.1297709923664122,-3.633587786259542,0.0,0.0024988651275634766
1471,0.148681640625,-0.0462646484375,-1.1971435546875,-0.061068702290076333,-3.49618320610687,-0.04580152671755725,0.002333402633666992
1450,0.15185546875,-0.0455322265625,-1.1922607421875,0.03816793893129771,-3.435114503816794,-0.13740458015267176,0.0023186206817626953
1424,0.154541015625,-0.0469970703125,-1.1895751953125,-0.030534351145038167,-3.6106870229007635,0.022900763358778626,0.0023179054260253906
1404,0.14794921875,-0.0435791015625,-1.1934814453125,-0.1450381679389313,-3.3435114503816794,-0.05343511450381679,0.002318143844604492
1398,0.159912109375,-0.0509033203125,-1.1907958984375,-0.13740458015267176,-3.33587786259542,0.007633587786259542,0.0023195743560791016
1383,0.15576171875,-0.0455322265625,-1.1876220703125,-0.04580152671755725,-3.519083969465649,-0.10687022900763359,0.0023169517517089844
1363,0.142822265625,-0.0494384765625,-1.1954345703125,-0.24427480916030533,-3.404580152671756,-0.015267175572519083,0.0023190975189208984
1343,0.15087890625,-0.0494384765625,-1.1954345703125,-0.1450381679389313,-3.6106870229007635,-0.022900763358778626,0.0023183822631835938
1329,0.149169921875,-0.0484619140625,-1.1900634765625,0.03816793893129771,-3.450381679389313,0.0,0.0023186206817626953
1308,0.14599609375,-0.0447998046875,-1.1917724609375,-0.20610687022900764,-3.4732824427480917,0.07633587786259542,0.0023164749145507812
1288,0.155029296875,-0.0501708984375,-1.1954345703125,-0.11450381679389313,-3.404580152671756,-0.061068702290076333,0.0023174285888671875
1272,0.1513671875,-0.0455322265625,-1.1834716796875,-0.08396946564885496,-3.4198473282442747,0.15267175572519084,0.0023190975189208984
3041,0.15283203125,-0.0384521484375,-1.1925048828125,0.0,-3.4427480916030535,0.04580152671755725,0.0023164749145507812
2965,0.150146484375,-0.0499267578125,-1.1849365234375,-0.07633587786259542,-3.6564885496183206,0.0,0.0023157596588134766
2904,0.15185546875,-0.0501708984375,-1.1910400390625,-0.11450381679389313,-3.3053435114503817,0.16793893129770993,0.0023169517517089844
2835,0.15380859375,-0.0469970703125,-1.1903076171875,-0.07633587786259542,-3.854961832061069,-0.007633587786259542,0.0023186206817626953
2771,0.155029296875,-0.0545654296875,-1.1864013671875,-0.05343511450381679,-3.366412213740458,0.022900763358778626,0.0023193359375
2712,0.15087890625,-0.0452880859375,-1.1895751953125,-0.13740458015267176,-3.549618320610687,-0.11450381679389313,0.002317667007446289
2655,0.15771484375,-0.0450439453125,-1.1964111328125,-0.015267175572519083,-3.4732824427480917,0.0,0.0023179054260253906
2597,0.1484375,-0.0484619140625,-1.1927490234375,0.0,-3.4732824427480917,-0.08396946564885496,0.0023157596588134766
2546,0.147705078125,-0.0482177734375,-1.1964111328125,-0.19083969465648856,-3.3435114503816794,-0.030534351145038167,0.0023162364959716797
2505,0.148193359375,-0.0428466796875,-1.1917724609375,-0.10687022900763359,-3.5114503816793894,0.061068702290076333,0.0023186206817626953
2461,0.14990234375,-0.0474853515625,-1.1907958984375,-0.24427480916030533,-3.5114503816793894,0.07633587786259542,0.0023186206817626953
2414,0.15087890625,-0.0430908203125,-1.1937255859375,-0.04580152671755725,-3.404580152671756,-0.09923664122137404,0.0023183822631835938
2367,0.153564453125,-0.0433349609375,-1.1932373046875,-0.04580152671755725,-3.5877862595419847,0.03816793893129771,0.0023174285888671875
2319,0.15625,-0.0401611328125,-1.1998291015625,-0.15267175572519084,-3.519083969465649,-0.08396946564885496,0.002317667007446289
2279,0.155029296875,-0.0484619140625,-1.1907958984375,-0.09923664122137404,-3.49618320610687,0.015267175572519083,0.0023174285888671875
2235,0.153564453125,-0.0474853515625,-1.1846923828125,-0.05343511450381679,-3.572519083969466,-0.16793893129770993,0.0023174285888671875
2191,0.148681640625,-0.0460205078125,-1.1871337890625,0.022900763358778626,-3.5267175572519083,-0.03816793893129771,0.0023193359375
2156,0.15283203125,-0.0484619140625,-1.1822509765625,-0.1984732824427481,-3.6412213740458017,0.022900763358778626,0.002316713333129883
2123,0.150390625,-0.0560302734375,-1.1881103515625,-0.06870229007633588,-3.4885496183206106,-0.007633587786259542,0.0023179054260253906
2096,0.154296875,-0.0450439453125,-1.1844482421875,0.0,-3.648854961832061,0.03816793893129771,0.0023169517517089844
2052,0.157470703125,-0.0509033203125,-1.1878662109375,-0.04580152671755725,-3.2213740458015265,-0.08396946564885496,0.0023152828216552734
2014,0.14501953125,-0.0509033203125,-1.1917724609375,-0.12213740458015267,-3.4656488549618323,0.061068702290076333,0.0023179054260253906
1980,0.14892578125,-0.0447998046875,-1.1927490234375,0.022900763358778626,-3.4885496183206106,-0.0916030534351145,0.002318143844604492
1945,0.154052734375,-0.0421142578125,-1.1934814453125,-0.08396946564885496,-3.49618320610687,0.16793893129770993,0.002318859100341797
1910,0.142578125,-0.0411376953125,-1.1842041015625,-0.1297709923664122,-3.519083969465649,-0.11450381679389313,0.002316713333129883
1879,0.15283203125,-0.0472412109375,-1.1844482421875,0.007633587786259542,-3.3893129770992365,0.05343511450381679,0.002317667007446289
1856,0.151611328125,-0.0467529296875,-1.2010498046875,-0.13740458015267176,-3.519083969465649,0.022900763358778626,0.002317667007446289
1831,0.15576171875,-0.0474853515625,-1.1888427734375,-0.21374045801526717,-3.404580152671756,-0.030534351145038167,0.0023174285888671875
1807,0.14892578125,-0.0450439453125,-1.1895751953125,-0.061068702290076333,-3.351145038167939,0.21374045801526717,0.002343416213989258
1775,0.151611328125,-0.0474853515625,-1.1795654296875,-0.10687022900763359,-3.4885496183206106,-0.11450381679389313,0.002347707748413086
1746,0.14794921875,-0.0421142578125,-1.1912841796875,-0.03816793893129771,-3.3435114503816794,-0.05343511450381679,0.0023217201232910156
1723,0.154052734375,-0.0472412109375,-1.1888427734375,-0.030534351145038167,-3.5419847328244276,-0.1450381679389313,0.0023183822631835938
1698,0.147216796875,-0.0445556640625,-1.1810302734375,-0.10687022900763359,-3.595419847328244,0.07633587786259542,0.0023186206817626953
1667,0.146484375,-0.0457763671875,-1.1871337890625,-0.13740458015267176,-3.3206106870229006,0.07633587786259542,0.0023169517517089844
1643,0.151123046875,-0.0396728515625,-1.1907958984375,-0.10687022900763359,-3.4885496183206106,-0.022900763358778626,0.0023183822631835938
1628,0.155029296875,-0.0484619140625,-1.1939697265625,-0.03816793893129771,-3.480916030534351,0.030534351145038167,0.0023186206817626953
1611,0.145751953125,-0.0491943359375,-1.1966552734375,-0.11450381679389313,-3.435114503816794,0.0,0.002318143844604492
1588,0.152099609375,-0.0418701171875,-1.1866455078125,0.007633587786259542,-3.3435114503816794,0.022900763358778626,0.002317190170288086
1558,0.149169921875,-0.0518798828125,-1.1947021484375,0.015267175572519083,-3.4656488549618323,0.007633587786259542,0.0023164749145507812
1534,0.1474609375,-0.0509033203125,-1.1885986328125,-0.20610687022900764,-3.4885496183206106,-0.04580152671755725,0.0023186206817626953
1515,0.150634765625,-0.0509033203125,-1.1878662109375,0.007633587786259542,-3.366412213740458,0.007633587786259542,0.0023179054260253906
1491,0.1513671875,-0.0472412109375,-1.1956787109375,-0.08396946564885496,-3.3969465648854964,-0.1450381679389313,0.0023179054260253906
1470,0.156494140625,-0.0426025390625,-1.1939697265625,-0.11450381679389313,-3.4732824427480917,0.1450381679389313,0.0023183822631835938
1457,0.151611328125,-0.0452880859375,-1.1898193359375,0.0,-3.480916030534351,-0.06870229007633588,0.0023169517517089844
1443,0.154052734375,-0.0506591796875,-1.1876220703125,-0.06870229007633588,-3.404580152671756,0.007633587786259542,0.002315998077392578
1427,0.155517578125,-0.0501708984375,-1.1922607421875,-0.08396946564885496,-3.5877862595419847,-0.05343511450381679,0.0023174285888671875
1407,0.1513671875,-0.0460205078125,-1.1925048828125,-0.13740458015267176,-3.4122137404580153,-0.022900763358778626,0.002317667007446289
1386,0.15283203125,-0.0504150390625,-1.1947021484375,0.05343511450381679,-3.4198473282442747,-0.0916030534351145,0.0023183822631835938
1369,0.149658203125,-0.0452880859375,-1.1915283203125,-0.15267175572519084,-3.687022900763359,0.16793893129770993,0.002425670623779297
1349,0.151123046875,-0.0394287109375,-1.1900634765625,-0.12213740458015267,-3.427480916030534,-0.015267175572519083,0.002324342727661133
1331,0.15869140625,-0.0462646484375,-1.1851806640625,-0.24427480916030533,-3.5419847328244276,0.061068702290076333,0.0023193359375
1311,0.154052734375,-0.0418701171875,-1.1959228515625,-0.061068702290076333,-3.4580152671755724,0.022900763358778626,0.0023179054260253906
1313,0.15234375,-0.0440673828125,-1.1910400390625,-0.1450381679389313,-3.564885496183206,-0.10687022900763359,0.002317667007446289
1296,0.1533203125,-0.0491943359375,-1.1851806640625,-0.04580152671755725,-3.3435114503816794,-0.10687022900763359,0.0023229122161865234
1281,0.155029296875,-0.0477294921875,-1.1881103515625,-0.10687022900763359,-3.3587786259541983,-0.03816793893129771,0.002351999282836914
1263,0.154052734375,-0.0384521484375,-1.1956787109375,0.007633587786259542,-3.381679389312977,0.015267175572519083,0.0023202896118164062
1247,0.15185546875,-0.0506591796875,-1.1907958984375,0.007633587786259542,-3.3893129770992365,-0.09923664122137404,0.0023183822631835938
1234,0.14501953125,-0.0504150390625,-1.1954345703125,-0.11450381679389313,-3.5801526717557253,0.022900763358778626,0.002319812774658203
1215,0.154052734375,-0.0506591796875,-1.1876220703125,-0.05343511450381679,-3.66412213740458,0.10687022900763359,0.0023186206817626953
1199,0.149658203125,-0.0491943359375,-1.1898193359375,0.04580152671755725,-3.4122137404580153,0.07633587786259542,0.0023190975189208984
2881,0.15283203125,-0.0477294921875,-1.1956787109375,-0.183206106870229,-3.4580152671755724,0.007633587786259542,0.0023164749145507812
2812,0.151611328125,-0.0474853515625,-1.1932373046875,-0.05343511450381679,-3.2900763358778624,-0.13740458015267176,0.002318859100341797
2760,0.15478515625,-0.0457763671875,-1.1922607421875,-0.12213740458015267,-3.549618320610687,0.05343511450381679,0.002317667007446289
2695,0.15283203125,-0.0445556640625,-1.1910400390625,-0.030534351145038167,-3.5343511450381677,0.030534351145038167,0.0023174285888671875
2631,0.154052734375,-0.0443115234375,-1.1903076171875,0.007633587786259542,-3.519083969465649,-0.16793893129770993,0.002317190170288086
2577,0.15087890625,-0.0472412109375,-1.1993408203125,-0.0916030534351145,-3.480916030534351,-0.09923664122137404,0.0023183822631835938
2527,0.1552734375,-0.0460205078125,-1.1912841796875,0.015267175572519083,-3.618320610687023,0.007633587786259542,0.0023186206817626953
2469,0.154052734375,-0.0430908203125,-1.1844482421875,-0.10687022900763359,-3.4732824427480917,0.05343511450381679,0.0023174285888671875
2417,0.151123046875,-0.0487060546875,-1.1744384765625,-0.12213740458015267,-3.50381679389313,-0.06870229007633588,0.0023186206817626953
2380,0.147216796875,-0.0489501953125,-1.1898193359375,-0.007633587786259542,-3.4580152671755724,-0.05343511450381679,0.0023179054260253906
2343,0.157958984375,-0.0411376953125,-1.1998291015625,-0.08396946564885496,-3.4885496183206106,0.007633587786259542,0.0023186206817626953
2303,0.14892578125,-0.0482177734375,-1.1939697265625,-0.05343511450381679,-3.3740458015267176,-0.09923664122137404,0.0023186206817626953
2258,0.152099609375,-0.0465087890625,-1.1854248046875,0.03816793893129771,-3.3435114503816794,0.183206106870229,0.002317190170288086
2209,0.156982421875,-0.0455322265625,-1.1888427734375,0.0,-3.49618320610687,-0.04580152671755725,0.0023431777954101562
2171,0.1484375,-0.0426025390625,-1.1893310546875,-0.10687022900763359,-3.6030534351145036,0.007633587786259542,0.0023238658905029297
2131,0.151611328125,-0.0482177734375,-1.1842041015625,-0.06870229007633588,-3.4732824427480917,0.09923664122137404,0.0023193359375
2091,0.154052734375,-0.0516357421875,-1.1807861328125,0.061068702290076333,-3.549618320610687,0.0,0.0023179054260253906
2051,0.157958984375,-0.0457763671875,-1.1834716796875,0.007633587786259542,-3.3587786259541983,-0.007633587786259542,0.0023162364959716797
2023,0.149658203125,-0.0506591796875,-1.1973876953125,-0.10687022900763359,-3.2900763358778624,-0.16793893129770993,0.0023190975189208984
1998,0.15283203125,-0.0423583984375,-1.1912841796875,-0.16793893129770993,-3.6106870229007635,0.06870229007633588,0.0023174285888671875
1963,0.148193359375,-0.0489501953125,-1.1864013671875,-0.007633587786259542,-3.49618320610687,0.015267175572519083,0.002318143844604492
1925,0.15478515625,-0.0489501953125,-1.1951904296875,0.1450381679389313,-3.5801526717557253,-0.08396946564885496,0.0023183822631835938
1891,0.1435546875,-0.0467529296875,-1.1939697265625,-0.16030534351145037,-3.236641221374046,0.06870229007633588,0.0023179054260253906
1859,0.152587890625,-0.0399169921875,-1.1866455078125,-0.061068702290076333,-3.519083969465649,0.030534351145038167,0.002317667007446289
1825,0.154052734375,-0.0467529296875,-1.1795654296875,-0.13740458015267176,-3.519083969465649,-0.16793893129770993,0.002317667007446289
1791,0.146728515625,-0.0513916015625,-1.1856689453125,0.007633587786259542,-3.6412213740458017,0.07633587786259542,0.0023186206817626953
1771,0.16064453125,-0.0413818359375,-1.1951904296875,-0.06870229007633588,-3.4885496183206106,0.061068702290076333,0.002316713333129883
1749,0.1484375,-0.0443115234375,-1.1851806640625,-0.11450381679389313,-3.549618320610687,0.022900763358778626,0.002317667007446289
1726,0.154052734375,-0.0504150390625,-1.1990966796875,-0.1297709923664122,-3.4198473282442747,0.0,0.002316713333129883
1695,0.148193359375,-0.0455322265625,-1.1866455078125,-0.015267175572519083,-3.7022900763358777,-0.015267175572519083,0.0023162364959716797
1667,0.154052734375,-0.0433349609375,-1.1822509765625,-0.1450381679389313,-3.33587786259542,0.007633587786259542,0.0023193359375
1644,0.14990234375,-0.0450439453125,-1.2017822265625,0.0,-3.3969465648854964,-0.19083969465648856,0.002316713333129883
1617,0.1640625,-0.0516357421875,-1.1871337890625,-0.061068702290076333,-3.404580152671756,0.015267175572519083,0.002317667007446289
1588,0.150146484375,-0.0513916015625,-1.1917724609375,-0.1984732824427481,-3.6412213740458017,0.05343511450381679,0.0023162364959716797
1563,0.157470703125,-0.0447998046875,-1.1890869140625,-0.08396946564885496,-3.5114503816793894,0.11450381679389313,0.0023183822631835938
1547,0.147705078125,-0.0460205078125,-1.1859130859375,-0.20610687022900764,-3.4427480916030535,-0.061068702290076333,0.002317190170288086
1533,0.146240234375,-0.0496826171875,-1.1912841796875,-0.04580152671755725,-3.4656488549618323,0.022900763358778626,0.0023179054260253906
1512,0.1552734375,-0.0487060546875,-1.1951904296875,-0.007633587786259542,-3.49618320610687,0.07633587786259542,0.0023183822631835938
1487,0.152587890625,-0.0406494140625,-1.1910400390625,-0.03816793893129771,-3.5877862595419847,0.061068702290076333,0.0023162364959716797
1464,0.158447265625,-0.0433349609375,-1.1871337890625,-0.2366412213740458,-3.3053435114503817,0.21374045801526717,0.0023179054260253906
1443,0.155029296875,-0.0496826171875,-1.1873779296875,-0.03816793893129771,-3.572519083969466,0.06870229007633588,0.002317667007446289
1419,0.14697265625,-0.0523681640625,-1.1859130859375,0.0,-3.5114503816793894,0.030534351145038167,0.002338886260986328
1391,0.15234375,-0.0438232421875,-1.1864013671875,-0.17557251908396945,-3.564885496183206,0.0,0.0023202896118164062
1372,0.1513671875,-0.0494384765625,-1.1905517578125,0.0916030534351145,-3.5114503816793894,0.16793893129770993,0.002316713333129883
1340,0.15234375,-0.0479736328125,-1.1871337890625,-0.16793893129770993,-3.4122137404580153,-0.015267175572519083,0.002318859100341797
1331,0.15380859375,-0.0447998046875,-1.1968994140625,-0.12213740458015267,-3.5801526717557253,-0.015267175572519083,0.0023174285888671875
1314,0.160400390625,-0.0455322265625,-1.1983642578125,-0.09923664122137404,-3.5572519083969465,-0.061068702290076333,0.002318143844604492
1295,0.152587890625,-0.0494384765625,-1.1944580078125,-0.16793893129770993,-3.519083969465649,-0.07633587786259542,0.0023179054260253906
1279,0.15087890625,-0.0460205078125,-1.1900634765625,0.03816793893129771,-3.633587786259542,-0.06870229007633588,0.0023179054260253906
1263,0.1572265625,-0.0465087890625,-1.1866455078125,-0.11450381679389313,-3.3740458015267176,0.03816793893129771,0.002456188201904297
1246,0.14892578125,-0.0499267578125,-1.1959228515625,-0.061068702290076333,-3.3587786259541983,0.05343511450381679,0.002325773239135742
1228,0.15380859375,-0.0509033203125,-1.1876220703125,-0.10687022900763359,-3.366412213740458,0.1297709923664122,0.0023193359375
2904,0.14990234375,-0.0523681640625,-1.1922607421875,-0.07633587786259542,-3.480916030534351,-0.022900763358778626,0.002317190170288086
2839,0.1513671875,-0.0496826171875,-1.1861572265625,-0.19083969465648856,-3.5343511450381677,0.015267175572519083,0.0023183822631835938
2773,0.146484375,-0.0416259765625,-1.1781005859375,0.03816793893129771,-3.7099236641221376,0.183206106870229,0.002318859100341797
2706,0.15673828125,-0.0496826171875,-1.1885986328125,0.0,-3.5572519083969465,-0.08396946564885496,0.002552509307861328
2647,0.15283203125,-0.0528564453125,-1.1881103515625,-0.015267175572519083,-3.312977099236641,-0.04580152671755725,0.002318859100341797
2597,0.15478515625,-0.0496826171875,-1.1895751953125,-0.11450381679389313,-3.3282442748091605,0.06870229007633588,0.0023186206817626953
2542,0.15673828125,-0.0469970703125,-1.1907958984375,0.007633587786259542,-3.282442748091603,-0.11450381679389313,0.002318859100341797
2486,0.146728515625,-0.0491943359375,-1.1910400390625,0.030534351145038167,-3.5801526717557253,-0.09923664122137404,0.002317667007446289
2439,0.154052734375,-0.0506591796875,-1.1910400390625,-0.16030534351145037,-3.5343511450381677,0.022900763358778626,0.002318143844604492
2399,0.150146484375,-0.0460205078125,-1.2037353515625,0.0,-3.3053435114503817,-0.0916030534351145,0.002318859100341797
2363,0.14892578125,-0.0433349609375,-1.1861572265625,-0.015267175572519083,-3.595419847328244,-0.061068702290076333,0.002315998077392578
2319,0.156005859375,-0.0457763671875,-1.1866455078125,-0.061068702290076333,-3.4656488549618323,-0.007633587786259542,0.0023183822631835938
2274,0.15869140625,-0.0465087890625,-1.1937255859375,-0.03816793893129771,-3.3206106870229006,0.06870229007633588,0.0023183822631835938
2230,0.155029296875,-0.0460205078125,-1.1915283203125,-0.030534351145038167,-3.3587786259541983,-0.10687022900763359,0.002318143844604492
2191,0.15283203125,-0.0445556640625,-1.1959228515625,-0.16030534351145037,-3.5877862595419847,-0.061068702290076333,0.002318143844604492
2151,0.150634765625,-0.0540771484375,-1.1864013671875,-0.030534351145038167,-3.5267175572519083,0.03816793893129771,0.002317667007446289
2109,0.153564453125,-0.0531005859375,-1.1871337890625,0.0,-3.4656488549618323,-0.10687022900763359,0.002318143844604492
2077,0.146484375,-0.0521240234375,-1.1907958984375,-0.20610687022900764,-3.595419847328244,-0.15267175572519084,0.0023148059844970703
2049,0.156005859375,-0.0465087890625,-1.1915283203125,-0.05343511450381679,-3.435114503816794,0.0,0.0023186206817626953
2021,0.149169921875,-0.0479736328125,-1.1893310546875,-0.0916030534351145,-3.5114503816793894,-0.04580152671755725,0.002315521240234375
1984,0.155517578125,-0.0438232421875,-1.1834716796875,-0.061068702290076333,-3.50381679389313,-0.015267175572519083,0.002317190170288086
1948,0.15576171875,-0.0465087890625,-1.1859130859375,-0.061068702290076333,-3.2748091603053435,-0.015267175572519083,0.002350330352783203
1919,0.14892578125,-0.0445556640625,-1.1912841796875,-0.16030534351145037,-3.50381679389313,-0.1297709923664122,0.002322673797607422
1887,0.1533203125,-0.0494384765625,-1.1827392578125,-0.15267175572519084,-3.480916030534351,0.007633587786259542,0.0023183822631835938
1854,0.154296875,-0.0487060546875,-1.1900634765625,0.007633587786259542,-3.4732824427480917,0.08396946564885496,0.0023183822631835938
1827,0.152099609375,-0.0487060546875,-1.1851806640625,-0.16793893129770993,-3.5801526717557253,-0.022900763358778626,0.002317190170288086
1805,0.149169921875,-0.0506591796875,-1.1881103515625,-0.1450381679389313,-3.5267175572519083,-0.12213740458015267,0.002351999282836914
1785,0.153564453125,-0.0421142578125,-1.1922607421875,-0.05343511450381679,-3.5343511450381677,0.15267175572519084,0.0023200511932373047
1758,0.14892578125,-0.0460205078125,-1.1978759765625,-0.05343511450381679,-3.2290076335877864,-0.05343511450381679,0.002318859100341797
1730,0.1552734375,-0.0455322265625,-1.1978759765625,-0.061068702290076333,-3.732824427480916,-0.10687022900763359,0.002341747283935547
1702,0.151611328125,-0.0479736328125,-1.1920166015625,-0.04580152671755725,-3.3206106870229006,0.015267175572519083,0.0023365020751953125
1677,0.150634765625,-0.0465087890625,-1.1885986328125,0.015267175572519083,-3.3740458015267176,0.13740458015267176,0.0023233890533447266
1645,0.1552734375,-0.0457763671875,-1.1898193359375,0.015267175572519083,-3.6030534351145036,0.030534351145038167,0.002318859100341797
1613,0.149169921875,-0.0487060546875,-1.1944580078125,-0.061068702290076333,-3.4122137404580153,0.0916030534351145,0.0023183822631835938
1595,0.156494140625,-0.0479736328125,-1.1824951171875,-0.1450381679389313,-3.3587786259541983,-0.022900763358778626,0.0023179054260253906
1579,0.14501953125,-0.0467529296875,-1.1839599609375,-0.030534351145038167,-3.33587786259542,-0.007633587786259542,0.0023190975189208984
1566,0.154541015625,-0.0538330078125,-1.1912841796875,0.0,-3.564885496183206,0.20610687022900764,0.0023186206817626953
1539,0.1513671875,-0.0523681640625,-1.1837158203125,-0.0916030534351145,-3.549618320610687,-0.12213740458015267,0.0023169517517089844
1515,0.152099609375,-0.0433349609375,-1.1905517578125,0.030534351145038167,-3.4656488549618323,-0.022900763358778626,0.0023186206817626953
1494,0.156005859375,-0.0460205078125,-1.1805419921875,0.08396946564885496,-3.404580152671756,0.0,0.0023186206817626953
1471,0.14990234375,-0.0491943359375,-1.1910400390625,-0.11450381679389313,-3.5572519083969465,0.007633587786259542,0.002315998077392578
1448,0.143798828125,-0.0467529296875,-1.1844482421875,-0.04580152671755725,-3.5419847328244276,-0.0916030534351145,0.0023190975189208984
1427,0.155517578125,-0.0457763671875,-1.1839599609375,-0.07633587786259542,-3.519083969465649,0.007633587786259542,0.0023183822631835938
1413,0.1611328125,-0.0479736328125,-1.1868896484375,0.007633587786259542,-3.4732824427480917,-0.04580152671755725,0.002317667007446289
1402,0.152099609375,-0.0501708984375,-1.1988525390625,-0.05343511450381679,-3.66412213740458,-0.06870229007633588,0.002317190170288086
1389,0.153564453125,-0.0457763671875,-1.1888427734375,-0.022900763358778626,-3.435114503816794,-0.09923664122137404,0.0023183822631835938
1368,0.15185546875,-0.0531005859375,-1.1912841796875,-0.08396946564885496,-3.2977099236641223,0.09923664122137404,0.0023179054260253906
1347,0.1494140625,-0.0469970703125,-1.1937255859375,-0.17557251908396945,-3.5267175572519083,-0.07633587786259542,0.0023407936096191406
1332,0.16162109375,-0.0426025390625,-1.1910400390625,-0.08396946564885496,-3.4656488549618323,0.15267175572519084,0.0023262500762939453
1310,0.1494140625,-0.0469970703125,-1.1917724609375,-0.08396946564885496,-3.49618320610687,0.0,0.0023183822631835938
1290,0.157958984375,-0.0482177734375,-1.1927490234375,-0.16030534351145037,-3.3969465648854964,0.0,0.002317667007446289
1438,0.14794921875,-0.0509033203125,-1.1942138671875,-0.04580152671755725,-3.5877862595419847,-0.0916030534351145,0.0023398399353027344
1467,0.154296875,-0.0469970703125,-1.1939697265625,-0.03816793893129771,-3.4580152671755724,-0.007633587786259542,0.002355337142944336
1453,0.14599609375,-0.0457763671875,-1.1922607421875,-0.05343511450381679,-3.3206106870229006,0.022900763358778626,0.0023202896118164062
1430,0.150146484375,-0.0494384765625,-1.1905517578125,0.07633587786259542,-3.4656488549618323,0.030534351145038167,0.0023200511932373047
1403,0.14453125,-0.0482177734375,-1.1898193359375,-0.022900763358778626,-3.572519083969466,0.022900763358778626,0.0023183822631835938
1383,0.154296875,-0.0479736328125,-1.1920166015625,-0.061068702290076333,-3.4885496183206106,0.0,0.0023186206817626953
1366,0.1513671875,-0.0469970703125,-1.1888427734375,-0.04580152671755725,-3.3740458015267176,0.19083969465648856,0.002316713333129883
1343,0.150390625,-0.0462646484375,-1.1854248046875,-0.16793893129770993,-3.366412213740458,-0.11450381679389313,0.0024671554565429688
1320,0.1455078125,-0.0479736328125,-1.1927490234375,0.19083969465648856,-3.633587786259542,-0.022900763358778626,0.0023279190063476562
2859,0.148193359375,-0.0489501953125,-1.1893310546875,-0.015267175572519083,-3.2519083969465647,0.11450381679389313,0.0023195743560791016
2793,0.146484375,-0.0513916015625,-1.1881103515625,-0.0916030534351145,-3.564885496183206,0.061068702290076333,0.002321958541870117
2734,0.15087890625,-0.0494384765625,-1.1954345703125,-0.06870229007633588,-3.2442748091603053,0.22137404580152673,0.0023183822631835938
2667,0.155029296875,-0.0474853515625,-1.2000732421875,0.03816793893129771,-3.4580152671755724,0.2748091603053435,0.002371549606323242
2602,0.156982421875,-0.0472412109375,-1.1920166015625,-0.17557251908396945,-3.564885496183206,-0.10687022900763359,0.002431631088256836
2551,0.148193359375,-0.0501708984375,-1.1868896484375,-0.13740458015267176,-3.4656488549618323,0.022900763358778626,0.0023336410522460938
2495,0.1513671875,-0.0416259765625,-1.1881103515625,-0.007633587786259542,-3.4427480916030535,-0.015267175572519083,0.0023195743560791016
2446,0.149658203125,-0.0455322265625,-1.1927490234375,-0.183206106870229,-3.3282442748091605,-0.022900763358778626,0.002318143844604492
2398,0.16064453125,-0.0457763671875,-1.1922607421875,0.0,-3.648854961832061,0.2595419847328244,0.002453327178955078
2349,0.14453125,-0.0472412109375,-1.1944580078125,0.03816793893129771,-3.404580152671756,0.10687022900763359,0.0032525062561035156
2307,0.152587890625,-0.0433349609375,-1.1937255859375,-0.16793893129770993,-3.435114503816794,0.11450381679389313,0.002361297607421875
2259,0.16015625,-0.0440673828125,-1.1802978515625,-0.05343511450381679,-3.6106870229007635,-0.1450381679389313,0.0023212432861328125
2214,0.14697265625,-0.0526123046875,-1.1944580078125,0.007633587786259542,-3.404580152671756,0.11450381679389313,0.0023193359375
2174,0.154296875,-0.0426025390625,-1.1910400390625,-0.16793893129770993,-3.4656488549618323,0.015267175572519083,0.002321481704711914
2130,0.150634765625,-0.0509033203125,-1.1900634765625,-0.17557251908396945,-3.435114503816794,0.04580152671755725,0.002321004867553711
2088,0.154541015625,-0.0433349609375,-1.1917724609375,0.007633587786259542,-3.5114503816793894,-0.1450381679389313,0.0023200511932373047
2050,0.159423828125,-0.0465087890625,-1.1878662109375,0.007633587786259542,-3.4656488549618323,0.0916030534351145,0.0023195743560791016
2017,0.149169921875,-0.0430908203125,-1.1834716796875,-0.1297709923664122,-3.4427480916030535,0.31297709923664124,0.0023190975189208984
1988,0.156494140625,-0.0399169921875,-1.1861572265625,-0.061068702290076333,-3.450381679389313,-0.03816793893129771,0.002318143844604492
1957,0.152587890625,-0.0465087890625,-1.1990966796875,-0.06870229007633588,-3.312977099236641,0.030534351145038167,0.0023200511932373047
1919,0.1455078125,-0.0469970703125,-1.1827392578125,-0.09923664122137404,-3.5419847328244276,0.03816793893129771,0.002317667007446289
1884,0.15234375,-0.0440673828125,-1.1937255859375,-0.0916030534351145,-3.572519083969466,0.22137404580152673,0.002318859100341797
1853,0.14794921875,-0.0418701171875,-1.1905517578125,-0.061068702290076333,-3.480916030534351,-0.007633587786259542,0.002317667007446289
1822,0.159912109375,-0.0465087890625,-1.1885986328125,0.022900763358778626,-3.381679389312977,0.12213740458015267,0.0023193359375
1786,0.149658203125,-0.0499267578125,-1.1925048828125,0.06870229007633588,-3.5114503816793894,-0.1297709923664122,0.0023186206817626953
1761,0.150146484375,-0.0428466796875,-1.1978759765625,0.015267175572519083,-3.381679389312977,0.0916030534351145,0.002318143844604492
1737,0.152587890625,-0.0447998046875,-1.1927490234375,-0.09923664122137404,-3.549618320610687,-0.030534351145038167,0.0023288726806640625
1718,0.154296875,-0.0467529296875,-1.1898193359375,-0.061068702290076333,-3.4656488549618323,-0.183206106870229,0.0023193359375
1689,0.148681640625,-0.0479736328125,-1.1878662109375,-0.007633587786259542,-3.450381679389313,0.11450381679389313,0.002333402633666992
1660,0.157470703125,-0.0479736328125,-1.1898193359375,-0.10687022900763359,-3.435114503816794,0.05343511450381679,0.0023190975189208984
1634,0.14892578125,-0.0452880859375,-1.1900634765625,0.015267175572519083,-3.6412213740458017,-0.06870229007633588,0.0023183822631835938
1607,0.155517578125,-0.0465087890625,-1.1868896484375,-0.04580152671755725,-3.3587786259541983,0.16793893129770993,0.0023195743560791016
1578,0.1572265625,-0.0518798828125,-1.1881103515625,-0.15267175572519084,-3.312977099236641,-0.04580152671755725,0.0023169517517089844
1554,0.149658203125,-0.0433349609375,-1.1907958984375,-0.0916030534351145,-3.572519083969466,0.0,0.002318143844604492
1539,0.15087890625,-0.0418701171875,-1.1942138671875,0.0,-3.50381679389313,-0.2824427480916031,0.0023169517517089844
1521,0.155517578125,-0.0469970703125,-1.1868896484375,-0.20610687022900764,-3.366412213740458,-0.06870229007633588,0.002317190170288086
1504,0.15673828125,-0.0462646484375,-1.1871337890625,0.05343511450381679,-3.427480916030534,0.0,0.0023190975189208984
1477,0.148681640625,-0.0452880859375,-1.1842041015625,-0.007633587786259542,-3.687022900763359,0.15267175572519084,0.002315998077392578
1452,0.155029296875,-0.0455322265625,-1.1898193359375,0.0,-3.6259541984732824,0.007633587786259542,0.0023193359375
1433,0.154296875,-0.0494384765625,-1.1793212890625,-0.20610687022900764,-3.572519083969466,0.030534351145038167,0.0023162364959716797
1407,0.149658203125,-0.0506591796875,-1.1798095703125,-0.1297709923664122,-3.3740458015267176,-0.03816793893129771,0.0023183822631835938
1386,0.15185546875,-0.0543212890625,-1.1961669921875,-0.1297709923664122,-3.49618320610687,-0.21374045801526717,0.0023238658905029297
1366,0.14794921875,-0.0494384765625,-1.1993408203125,-0.1297709923664122,-3.5801526717557253,-0.16793893129770993,0.0023193359375
1341,0.155517578125,-0.0435791015625,-1.1893310546875,-0.0916030534351145,-3.519083969465649,-0.0916030534351145,0.002318143844604492
1327,0.15625,-0.0499267578125,-1.1854248046875,0.061068702290076333,-3.6030534351145036,0.17557251908396945,0.0023179054260253906
1305,0.156005859375,-0.0487060546875,-1.1900634765625,0.022900763358778626,-3.618320610687023,-0.03816793893129771,0.002317190170288086
1285,0.156005859375,-0.0416259765625,-1.1951904296875,-0.10687022900763359,-3.450381679389313,-0.10687022900763359,0.002318143844604492
1269,0.15380859375,-0.0467529296875,-1.1856689453125,0.061068702290076333,-3.5877862595419847,0.20610687022900764,0.0023183822631835938
1251,0.152587890625,-0.0452880859375,-1.1903076171875,-0.04580152671755725,-3.549618320610687,-0.1297709923664122,0.002318143844604492
1234,0.154296875,-0.0401611328125,-1.1983642578125,-0.08396946564885496,-3.6106870229007635,0.21374045801526717,0.002317667007446289
1215,0.150146484375,-0.0477294921875,-1.1939697265625,-0.061068702290076333,-3.381679389312977,-0.11450381679389313,0.0023183822631835938
3055,0.155517578125,-0.0428466796875,-1.1849365234375,-0.13740458015267176,-3.5267175572519083,0.0,0.0023174285888671875
2979,0.155029296875,-0.0445556640625,-1.1890869140625,-0.09923664122137404,-3.595419847328244,-0.05343511450381679,0.0023169517517089844
2917,0.1474609375,-0.0521240234375,-1.1822509765625,-0.061068702290076333,-3.4885496183206106,-0.007633587786259542,0.0023238658905029297
2849,0.15283203125,-0.0467529296875,-1.1883544921875,-0.03816793893129771,-3.717557251908397,-0.061068702290076333,0.002318143844604492
2784,0.156005859375,-0.0469970703125,-1.1873779296875,0.015267175572519083,-3.49618320610687,-0.022900763358778626,0.0023183822631835938
2725,0.14404296875,-0.0469970703125,-1.1883544921875,-0.16030534351145037,-3.648854961832061,-0.015267175572519083,0.0023183822631835938
2667,0.14794921875,-0.0469970703125,-1.1898193359375,0.0916030534351145,-3.5419847328244276,0.08396946564885496,0.0023179054260253906
2608,0.154541015625,-0.0426025390625,-1.1851806640625,-0.10687022900763359,-3.450381679389313,-0.11450381679389313,0.002317667007446289
2555,0.1572265625,-0.0484619140625,-1.1815185546875,-0.022900763358778626,-3.5114503816793894,0.022900763358778626,0.0023174285888671875
2509,0.14990234375,-0.0438232421875,-1.1898193359375,-0.1450381679389313,-3.549618320610687,0.12213740458015267,0.0024979114532470703
2467,0.146240234375,-0.0411376953125,-1.1839599609375,-0.015267175572519083,-3.5114503816793894,-0.08396946564885496,0.002329111099243164
2423,0.155029296875,-0.0465087890625,-1.1871337890625,0.061068702290076333,-3.5877862595419847,0.03816793893129771,0.0023217201232910156
2369,0.154296875,-0.0428466796875,-1.1932373046875,-0.1297709923664122,-3.50381679389313,0.007633587786259542,0.0023183822631835938
2324,0.142822265625,-0.0440673828125,-1.1912841796875,-0.08396946564885496,-3.50381679389313,-0.04580152671755725,0.0023186206817626953
2284,0.149169921875,-0.0457763671875,-1.1864013671875,0.030534351145038167,-3.7099236641221376,-0.12213740458015267,0.0023183822631835938
2237,0.154541015625,-0.0469970703125,-1.1956787109375,0.007633587786259542,-3.4427480916030535,-0.007633587786259542,0.0023190975189208984
2195,0.143310546875,-0.0474853515625,-1.1888427734375,0.05343511450381679,-3.381679389312977,0.022900763358778626,0.002321481704711914
2161,0.1474609375,-0.0406494140625,-1.1873779296875,-0.24427480916030533,-3.3435114503816794,-0.04580152671755725,0.002317667007446289
2129,0.15283203125,-0.0474853515625,-1.1888427734375,0.015267175572519083,-3.4885496183206106,-0.015267175572519083,0.0023186206817626953
2100,0.1494140625,-0.0406494140625,-1.1871337890625,-0.06870229007633588,-3.5419847328244276,0.06870229007633588,0.002318143844604492
2059,0.148681640625,-0.0440673828125,-1.1895751953125,-0.16030534351145037,-3.3893129770992365,0.03816793893129771,0.0023179054260253906
2020,0.154052734375,-0.0408935546875,-1.1956787109375,-0.1450381679389313,-3.5267175572519083,0.1450381679389313,0.0023183822631835938
1985,0.15234375,-0.0455322265625,-1.1998291015625,-0.007633587786259542,-3.4885496183206106,0.08396946564885496,0.0023453235626220703
1951,0.148193359375,-0.0479736328125,-1.1932373046875,-0.022900763358778626,-3.435114503816794,0.061068702290076333,0.002323150634765625
1916,0.1591796875,-0.0433349609375,-1.1839599609375,-0.1450381679389313,-3.427480916030534,-0.10687022900763359,0.002317667007446289
1886,0.155029296875,-0.0416259765625,-1.1824951171875,0.007633587786259542,-3.5267175572519083,-0.10687022900763359,0.0023179054260253906
1861,0.15478515625,-0.0469970703125,-1.1993408203125,-0.16030534351145037,-3.4732824427480917,0.22900763358778625,0.002318143844604492
1839,0.15087890625,-0.0482177734375,-1.1920166015625,-0.015267175572519083,-3.3740458015267176,-0.007633587786259542,0.0023183822631835938
1815,0.149658203125,-0.0445556640625,-1.1815185546875,-0.16793893129770993,-3.519083969465649,0.08396946564885496,0.0023195743560791016
1783,0.15185546875,-0.0518798828125,-1.1949462890625,-0.07633587786259542,-3.564885496183206,0.007633587786259542,0.002317190170288086
1755,0.151611328125,-0.0533447265625,-1.1866455078125,-0.0916030534351145,-3.4580152671755724,0.030534351145038167,0.0023305416107177734
1729,0.158447265625,-0.0445556640625,-1.1776123046875,-0.05343511450381679,-3.2900763358778624,0.030534351145038167,0.002317667007446289
1698,0.151123046875,-0.0513916015625,-1.1861572265625,-0.16030534351145037,-3.6412213740458017,0.11450381679389313,0.002318143844604492
1667,0.158203125,-0.0450439453125,-1.1927490234375,-0.04580152671755725,-3.3893129770992365,-0.022900763358778626,0.0023174285888671875
1646,0.1572265625,-0.0479736328125,-1.1961669921875,-0.022900763358778626,-3.4122137404580153,-0.09923664122137404,0.0023186206817626953
1631,0.15380859375,-0.0550537109375,-1.1932373046875,0.061068702290076333,-3.435114503816794,0.0,0.0023183822631835938
1614,0.16064453125,-0.0477294921875,-1.1864013671875,0.0,-3.5267175572519083,0.0,0.0023157596588134766
1589,0.1513671875,-0.0462646484375,-1.1851806640625,-0.16793893129770993,-3.3435114503816794,0.0,0.0023140907287597656
1560,0.153564453125,-0.0474853515625,-1.1864013671875,-0.030534351145038167,-3.4732824427480917,0.12213740458015267,0.002315998077392578
1535,0.156005859375,-0.0518798828125,-1.1922607421875,-0.0916030534351145,-3.404580152671756,-0.16030534351145037,0.002318859100341797
1514,0.15576171875,-0.0487060546875,-1.1932373046875,-0.16793893129770993,-3.6717557251908395,-0.04580152671755725,0.0023183822631835938
1493,0.150146484375,-0.0511474609375,-1.1873779296875,0.05343511450381679,-3.4580152671755724,0.08396946564885496,0.0023169517517089844
1466,0.14990234375,-0.0462646484375,-1.1859130859375,-0.015267175572519083,-3.595419847328244,-0.11450381679389313,0.0023179054260253906
1454,0.156005859375,-0.0457763671875,-1.1947021484375,-0.0916030534351145,-3.7022900763358777,-0.13740458015267176,0.0023169517517089844
1443,0.145263671875,-0.0521240234375,-1.1905517578125,0.05343511450381679,-3.3206106870229006,0.007633587786259542,0.0023193359375
1426,0.1474609375,-0.0506591796875,-1.1905517578125,-0.022900763358778626,-3.7099236641221376,-0.09923664122137404,0.002316713333129883
1404,0.1572265625,-0.0474853515625,-1.1893310546875,-0.022900763358778626,-3.3740458015267176,-0.06870229007633588,0.002318859100341797
1383,0.1484375,-0.0494384765625,-1.1895751953125,-0.007633587786259542,-3.4656488549618323,0.007633587786259542,0.002318143844604492
1365,0.14697265625,-0.0511474609375,-1.1849365234375,-0.07633587786259542,-3.595419847328244,0.12213740458015267,0.002316713333129883
1343,0.150390625,-0.0516357421875,-1.1868896484375,0.007633587786259542,-3.4885496183206106,0.0,0.0023179054260253906
1321,0.156005859375,-0.0501708984375,-1.1851806640625,-0.1450381679389313,-3.618320610687023,0.05343511450381679,0.002412557601928711
1304,0.15966796875,-0.0467529296875,-1.1907958984375,0.11450381679389313,-3.6106870229007635,-0.25190839694656486,0.002323150634765625
1291,0.146484375,-0.0482177734375,-1.1949462890625,-0.11450381679389313,-3.50381679389313,0.04580152671755725,0.002319812774658203
1272,0.149658203125,-0.0487060546875,-1.1990966796875,-0.061068702290076333,-3.595419847328244,-0.10687022900763359,0.002318859100341797
1259,0.151611328125,-0.0467529296875,-1.1905517578125,-0.17557251908396945,-3.4656488549618323,-0.10687022900763359,0.0023195743560791016
1243,0.149169921875,-0.0477294921875,-1.1964111328125,-0.007633587786259542,-3.618320610687023,-0.09923664122137404,0.002318143844604492
1228,0.156494140625,-0.0462646484375,-1.1976318359375,-0.007633587786259542,-3.6412213740458017,0.13740458015267176,0.0023179054260253906
1212,0.14990234375,-0.0455322265625,-1.1917724609375,-0.015267175572519083,-3.435114503816794,-0.06870229007633588,0.0023183822631835938
1196,0.1533203125,-0.0501708984375,-1.1944580078125,-0.2824427480916031,-3.5801526717557253,0.007633587786259542,0.0023186206817626953
1178,0.148193359375,-0.0377197265625,-1.1903076171875,0.06870229007633588,-3.4580152671755724,-0.16793893129770993,0.002318859100341797
2265,0.14453125,-0.0479736328125,-1.1903076171875,-0.11450381679389313,-3.2748091603053435,-0.06870229007633588,0.002317667007446289
2787,0.146240234375,-0.0423583984375,-1.1881103515625,0.015267175572519083,-3.5572519083969465,0.030534351145038167,0.0023179054260253906
2727,0.146240234375,-0.0477294921875,-1.1910400390625,0.061068702290076333,-3.687022900763359,-0.1297709923664122,0.0023183822631835938
2663,0.141357421875,-0.0457763671875,-1.1878662109375,-0.09923664122137404,-3.6946564885496183,0.007633587786259542,0.002339601516723633
2603,0.1494140625,-0.0496826171875,-1.1912841796875,-0.04580152671755725,-3.3282442748091605,0.061068702290076333,0.0023195743560791016
2547,0.15185546875,-0.0433349609375,-1.1907958984375,-0.12213740458015267,-3.5801526717557253,0.16030534351145037,0.002317667007446289
2495,0.1435546875,-0.0469970703125,-1.1822509765625,-0.11450381679389313,-3.648854961832061,-0.11450381679389313,0.0023195743560791016
2444,0.159912109375,-0.0450439453125,-1.1922607421875,-0.022900763358778626,-3.618320610687023,-0.05343511450381679,0.0023174285888671875
2395,0.146484375,-0.0443115234375,-1.1947021484375,0.16030534351145037,-3.5877862595419847,-0.015267175572519083,0.002317667007446289
2355,0.15771484375,-0.0428466796875,-1.1807861328125,-0.030534351145038167,-3.267175572519084,-0.022900763358778626,0.002317667007446289
2317,0.144775390625,-0.0445556640625,-1.2005615234375,-0.05343511450381679,-3.854961832061069,0.007633587786259542,0.0024721622467041016
2277,0.153564453125,-0.0447998046875,-1.1949462890625,0.061068702290076333,-3.33587786259542,0.12213740458015267,0.0023279190063476562
2227,0.14697265625,-0.0450439453125,-1.1910400390625,-0.16030534351145037,-3.3587786259541983,-0.030534351145038167,0.0023202896118164062
2184,0.15234375,-0.0479736328125,-1.1885986328125,-0.0916030534351145,-3.648854961832061,-0.015267175572519083,0.002319812774658203
2146,0.14892578125,-0.0462646484375,-1.1895751953125,-0.10687022900763359,-3.3435114503816794,0.11450381679389313,0.0023183822631835938
2105,0.1513671875,-0.0445556640625,-1.1898193359375,-0.04580152671755725,-3.381679389312977,-0.015267175572519083,0.0023193359375
2065,0.152099609375,-0.0426025390625,-1.1827392578125,-0.2366412213740458,-3.549618320610687,0.16030534351145037,0.002317190170288086
2031,0.15185546875,-0.0472412109375,-1.1959228515625,-0.09923664122137404,-3.5572519083969465,0.06870229007633588,0.0023217201232910156
2005,0.15185546875,-0.0455322265625,-1.1964111328125,-0.10687022900763359,-3.4656488549618323,0.007633587786259542,0.0023193359375
1979,0.1513671875,-0.0426025390625,-1.1912841796875,-0.1297709923664122,-3.50381679389313,0.183206106870229,0.0023179054260253906
1946,0.153564453125,-0.0506591796875,-1.1893310546875,-0.05343511450381679,-3.33587786259542,0.19083969465648856,0.0023183822631835938
1910,0.157470703125,-0.0445556640625,-1.1898193359375,-0.22137404580152673,-3.312977099236641,-0.26717557251908397,0.002318859100341797
1878,0.143310546875,-0.0482177734375,-1.1881103515625,0.0,-3.5419847328244276,-0.06870229007633588,0.0023183822631835938
1847,0.151123046875,-0.0447998046875,-1.1898193359375,-0.0916030534351145,-3.2748091603053435,0.20610687022900764,0.0023169517517089844
1814,0.15087890625,-0.0487060546875,-1.1883544921875,-0.12213740458015267,-3.3893129770992365,0.061068702290076333,0.002317667007446289
1781,0.15234375,-0.0489501953125,-1.1920166015625,-0.030534351145038167,-3.50381679389313,-0.04580152671755725,0.002330303192138672
1763,0.147216796875,-0.0538330078125,-1.1881103515625,-0.11450381679389313,-3.4198473282442747,0.17557251908396945,0.002318143844604492
1743,0.15966796875,-0.0501708984375,-1.1910400390625,-0.022900763358778626,-3.3206106870229006,0.0,0.002318859100341797
1722,0.148681640625,-0.0494384765625,-1.1920166015625,-0.13740458015267176,-3.4885496183206106,0.03816793893129771,0.0023169517517089844
1691,0.15234375,-0.0479736328125,-1.1925048828125,0.0,-3.5801526717557253,0.11450381679389313,0.0023193359375
1661,0.15185546875,-0.0548095703125,-1.1878662109375,-0.04580152671755725,-3.450381679389313,0.09923664122137404,0.0023162364959716797
1637,0.153564453125,-0.0499267578125,-1.1981201171875,-0.10687022900763359,-3.4732824427480917,-0.12213740458015267,0.0023174285888671875
1612,0.153564453125,-0.0418701171875,-1.1907958984375,0.03816793893129771,-3.4885496183206106,0.11450381679389313,0.002318859100341797
1582,0.150146484375,-0.0484619140625,-1.1812744140625,0.06870229007633588,-3.572519083969466,0.1450381679389313,0.0023179054260253906
1557,0.159912109375,-0.0467529296875,-1.1893310546875,-0.022900763358778626,-3.4656488549618323,0.0,0.002317190170288086
1543,0.154052734375,-0.0477294921875,-1.1885986328125,-0.07633587786259542,-3.50381679389313,-0.05343511450381679,0.002317190170288086
1530,0.15380859375,-0.0479736328125,-1.1905517578125,0.183206106870229,-3.282442748091603,-0.04580152671755725,0.002316713333129883
1510,0.152099609375,-0.0494384765625,-1.1905517578125,-0.06870229007633588,-3.572519083969466,-0.07633587786259542,0.0023179054260253906
1487,0.150146484375,-0.0496826171875,-1.1849365234375,0.007633587786259542,-3.648854961832061,-0.022900763358778626,0.0023179054260253906
1466,0.148193359375,-0.0467529296875,-1.1812744140625,0.007633587786259542,-3.7251908396946565,0.11450381679389313,0.0023193359375
1445,0.1552734375,-0.0504150390625,-1.1905517578125,-0.13740458015267176,-3.480916030534351,0.12213740458015267,0.002317190170288086
1422,0.15234375,-0.0499267578125,-1.1890869140625,-0.03816793893129771,-3.50381679389313,-0.007633587786259542,0.002318143844604492
1400,0.15478515625,-0.0430908203125,-1.1915283203125,0.06870229007633588,-3.6412213740458017,-0.07633587786259542,0.002318143844604492
1385,0.15380859375,-0.0572509765625,-1.1895751953125,-0.04580152671755725,-3.427480916030534,0.022900763358778626,0.0023169517517089844
1353,0.1484375,-0.0526123046875,-1.1849365234375,0.0916030534351145,-3.633587786259542,0.0,0.0023179054260253906
1338,0.1552734375,-0.0511474609375,-1.1822509765625,0.007633587786259542,-3.33587786259542,-0.03816793893129771,0.002315521240234375
1319,0.15185546875,-0.0474853515625,-1.1846923828125,0.061068702290076333,-3.381679389312977,-0.022900763358778626,0.0023179054260253906
1300,0.152099609375,-0.0479736328125,-1.1878662109375,0.07633587786259542,-3.564885496183206,0.0,0.0023179054260253906
1281,0.1513671875,-0.0457763671875,-1.1890869140625,-0.030534351145038167,-3.564885496183206,-0.03816793893129771,0.002337932586669922
1265,0.162841796875,-0.0509033203125,-1.1944580078125,-0.007633587786259542,-3.4427480916030535,-0.030534351145038167,0.002318859100341797
1249,0.147705078125,-0.0533447265625,-1.1876220703125,0.06870229007633588,-3.3969465648854964,0.022900763358778626,0.002317667007446289
1229,0.153564453125,-0.0477294921875,-1.2008056640625,-0.022900763358778626,-3.6030534351145036,-0.11450381679389313,0.002317667007446289
2902,0.155517578125,-0.0455322265625,-1.1973876953125,0.007633587786259542,-3.687022900763359,0.022900763358778626,0.002318859100341797
2828,0.153076171875,-0.0506591796875,-1.1839599609375,0.0,-3.633587786259542,0.022900763358778626,0.0023179054260253906
2767,0.150390625,-0.0496826171875,-1.2015380859375,0.0,-3.4580152671755724,-0.07633587786259542,0.0023174285888671875
2700,0.158203125,-0.0445556640625,-1.1888427734375,0.15267175572519084,-3.6946564885496183,-0.061068702290076333,0.002315521240234375
2637,0.15087890625,-0.0457763671875,-1.1895751953125,-0.15267175572519084,-3.7251908396946565,0.06870229007633588,0.0023186206817626953
2581,0.153076171875,-0.0452880859375,-1.1846923828125,0.29770992366412213,-3.6564885496183206,0.0,0.0023186206817626953
2523,0.14599609375,-0.0467529296875,-1.1932373046875,0.08396946564885496,-3.6106870229007635,0.183206106870229,0.002315998077392578
2465,0.15185546875,-0.0418701171875,-1.1934814453125,0.0916030534351145,-3.480916030534351,-0.07633587786259542,0.002316713333129883
2417,0.152587890625,-0.0435791015625,-1.1824951171875,0.03816793893129771,-3.5267175572519083,0.022900763358778626,0.002317667007446289
2374,0.15087890625,-0.0496826171875,-1.1866455078125,0.06870229007633588,-3.4732824427480917,0.022900763358778626,0.002318143844604492
2331,0.144287109375,-0.0484619140625,-1.1932373046875,-0.13740458015267176,-3.4427480916030535,-0.015267175572519083,0.0023162364959716797
2291,0.153076171875,-0.0457763671875,-1.1912841796875,0.0,-3.6793893129770994,0.0,0.002318859100341797
2244,0.153564453125,-0.0438232421875,-1.2003173828125,0.05343511450381679,-3.450381679389313,-0.04580152671755725,0.0023136138916015625
2199,0.159912109375,-0.0447998046875,-1.2027587890625,-0.06870229007633588,-3.404580152671756,-0.09923664122137404,0.0023195743560791016
2160,0.14501953125,-0.0496826171875,-1.1944580078125,0.022900763358778626,-3.282442748091603,0.183206106870229,0.0023190975189208984
2115,0.149658203125,-0.0433349609375,-1.1903076171875,-0.06870229007633588,-3.49618320610687,0.03816793893129771,0.002316713333129883
2073,0.1455078125,-0.0430908203125,-1.1881103515625,-0.03816793893129771,-3.549618320610687,-0.022900763358778626,0.0023179054260253906
2046,0.14794921875,-0.0465087890625,-1.1868896484375,-0.04580152671755725,-3.480916030534351,-0.030534351145038167,0.0023174285888671875
2020,0.14111328125,-0.0469970703125,-1.1937255859375,0.04580152671755725,-3.50381679389313,0.1450381679389313,0.002318143844604492
1991,0.1552734375,-0.0469970703125,-1.1878662109375,-0.022900763358778626,-3.49618320610687,-0.20610687022900764,0.0023169517517089844
1955,0.1513671875,-0.0477294921875,-1.1888427734375,0.0,-3.3435114503816794,0.22900763358778625,0.0024247169494628906
1918,0.1484375,-0.0445556640625,-1.1932373046875,-0.16793893129770993,-3.366412213740458,0.007633587786259542,0.0023224353790283203
1887,0.14306640625,-0.0469970703125,-1.1859130859375,0.007633587786259542,-3.435114503816794,-0.19083969465648856,0.002317667007446289
1857,0.15087890625,-0.0509033203125,-1.1898193359375,-0.06870229007633588,-3.7022900763358777,0.26717557251908397,0.002327442169189453
1823,0.154296875,-0.0438232421875,-1.1947021484375,-0.21374045801526717,-3.312977099236641,0.007633587786259542,0.0023195743560791016
1796,0.14794921875,-0.0465087890625,-1.2034912109375,-0.05343511450381679,-3.3206106870229006,0.11450381679389313,0.0023186206817626953
1774,0.148193359375,-0.0462646484375,-1.1890869140625,0.0916030534351145,-3.3053435114503817,0.03816793893129771,0.0023186206817626953
1751,0.1494140625,-0.0518798828125,-1.1888427734375,-0.03816793893129771,-3.6717557251908395,0.061068702290076333,0.0023169517517089844
1726,0.15673828125,-0.0467529296875,-1.1900634765625,-0.08396946564885496,-3.3893129770992365,0.13740458015267176,0.0023217201232910156
1693,0.1494140625,-0.0443115234375,-1.2000732421875,-0.25190839694656486,-3.427480916030534,-0.09923664122137404,0.002318143844604492
1666,0.14892578125,-0.0533447265625,-1.1925048828125,-0.030534351145038167,-3.435114503816794,0.20610687022900764,0.0023179054260253906
1640,0.156982421875,-0.0462646484375,-1.1829833984375,-0.0916030534351145,-3.648854961832061,-0.030534351145038167,0.002317667007446289
1612,0.147216796875,-0.0504150390625,-1.1920166015625,-0.08396946564885496,-3.6946564885496183,-0.19083969465648856,0.0023183822631835938
1586,0.158447265625,-0.0443115234375,-1.2015380859375,0.5877862595419847,-3.2977099236641223,-0.03816793893129771,0.0023195743560791016
1567,0.1533203125,-0.0535888671875,-1.1783447265625,-0.46564885496183206,-3.33587786259542,-0.06870229007633588,0.002317667007446289
1552,0.16162109375,-0.0462646484375,-1.1976318359375,0.16030534351145037,-4.068702290076335,0.03816793893129771,0.0023174285888671875
1534,0.1484375,-0.0513916015625,-1.1866455078125,-0.09923664122137404,-2.7557251908396947,0.19083969465648856,0.0023174285888671875
1507,0.156982421875,-0.0467529296875,-1.1942138671875,-0.030534351145038167,-3.6564885496183206,-0.04580152671755725,0.002321481704711914
1484,0.1484375,-0.0555419921875,-1.1925048828125,-0.1450381679389313,-3.8396946564885495,-0.06870229007633588,0.002318143844604492
1463,0.1572265625,-0.0474853515625,-1.2000732421875,0.04580152671755725,-3.2748091603053435,0.061068702290076333,0.0023190975189208984
1438,0.146240234375,-0.0535888671875,-1.1851806640625,0.0916030534351145,-3.1755725190839694,0.13740458015267176,0.002318143844604492
1412,0.156982421875,-0.0535888671875,-1.1971435546875,-0.19083969465648856,-4.00763358778626,-0.183206106870229,0.0023174285888671875
1391,0.16015625,-0.0491943359375,-1.1898193359375,0.12213740458015267,-3.4427480916030535,0.09923664122137404,0.0023183822631835938
1371,0.1533203125,-0.0562744140625,-1.1859130859375,-0.21374045801526717,-3.2595419847328246,0.0,0.0023179054260253906
1347,0.159912109375,-0.0499267578125,-1.2022705078125,0.06870229007633588,-4.038167938931298,-0.05343511450381679,0.002321481704711914
1334,0.15966796875,-0.0565185546875,-1.1871337890625,-0.015267175572519083,-3.5572519083969465,-0.007633587786259542,0.0023195743560791016
1314,0.15283203125,-0.0531005859375,-1.1903076171875,0.061068702290076333,-3.6564885496183206,-0.09923664122137404,0.0023174285888671875
1294,0.154296875,-0.0506591796875,-1.1827392578125,0.16030534351145037,-3.7251908396946565,-0.08396946564885496,0.002319812774658203
1276,0.147705078125,-0.0521240234375,-1.1844482421875,0.022900763358778626,-3.7022900763358777,-0.24427480916030533,0.0023775100708007812
1257,0.152587890625,-0.0452880859375,-1.1888427734375,0.061068702290076333,-3.6259541984732824,0.15267175572519084,0.002325296401977539
1235,0.1591796875,-0.0516357421875,-1.1912841796875,0.0916030534351145,-3.6412213740458017,-0.12213740458015267,0.002319812774658203
1418,0.151611328125,-0.0487060546875,-1.1881103515625,-0.015267175572519083,-3.816793893129771,-0.17557251908396945,0.0023190975189208984
1924,0.149658203125,-0.0496826171875,-1.1927490234375,-0.007633587786259542,-3.7251908396946565,-0.03816793893129771,0.002324342727661133
1895,0.15234375,-0.0411376953125,-1.1898193359375,-0.03816793893129771,-3.763358778625954,0.09923664122137404,0.0023190975189208984
1863,0.156982421875,-0.0445556640625,-1.1942138671875,0.015267175572519083,-3.633587786259542,-0.061068702290076333,0.002317667007446289
1823,0.150146484375,-0.0445556640625,-1.1903076171875,0.08396946564885496,-3.6946564885496183,0.015267175572519083,0.0023183822631835938
1788,0.152587890625,-0.0457763671875,-1.1942138671875,-0.007633587786259542,-3.6030534351145036,-0.03816793893129771,0.0023174285888671875
1758,0.15625,-0.0452880859375,-1.1927490234375,-0.022900763358778626,-3.7022900763358777,0.030534351145038167,0.0023190975189208984
1725,0.14599609375,-0.0440673828125,-1.1807861328125,0.08396946564885496,-3.66412213740458,-0.08396946564885496,0.0023179054260253906
1691,0.151611328125,-0.0462646484375,-1.1888427734375,-0.061068702290076333,-3.4656488549618323,-0.22900763358778625,0.0023183822631835938
1667,0.151123046875,-0.0430908203125,-1.1983642578125,-0.13740458015267176,-3.564885496183206,0.03816793893129771,0.002317667007446289
1627,0.1552734375,-0.0411376953125,-1.1834716796875,0.13740458015267176,-3.5114503816793894,-0.10687022900763359,0.002372264862060547
1607,0.142333984375,-0.0428466796875,-1.1910400390625,-0.21374045801526717,-3.6717557251908395,-0.08396946564885496,0.0023229122161865234
1579,0.14794921875,-0.0411376953125,-1.1866455078125,-0.015267175572519083,-3.4885496183206106,0.03816793893129771,0.002318859100341797
1551,0.15625,-0.0394287109375,-1.1903076171875,-0.15267175572519084,-3.5343511450381677,0.022900763358778626,0.0023200511932373047
1527,0.14697265625,-0.0386962890625,-1.1864013671875,-0.0916030534351145,-3.4885496183206106,0.007633587786259542,0.0023183822631835938
1502,0.14501953125,-0.0440673828125,-1.1888427734375,-0.16030534351145037,-3.450381679389313,-0.03816793893129771,0.0023190975189208984
1479,0.150390625,-0.0394287109375,-1.1961669921875,-0.16030534351145037,-3.2900763358778624,-0.13740458015267176,0.0023183822631835938
1454,0.143310546875,-0.0382080078125,-1.1893310546875,-0.07633587786259542,-3.6106870229007635,0.007633587786259542,0.0023183822631835938
1892,0.14990234375,-0.0404052734375,-1.1915283203125,-0.09923664122137404,-3.4656488549618323,-0.007633587786259542,0.002318143844604492
1855,0.14990234375,-0.0382080078125,-1.1895751953125,-0.08396946564885496,-3.3587786259541983,0.183206106870229,0.002317190170288086
1827,0.142333984375,-0.0447998046875,-1.1932373046875,-0.1297709923664122,-3.549618320610687,-0.10687022900763359,0.0023190975189208984
1793,0.144775390625,-0.0472412109375,-1.1912841796875,-0.06870229007633588,-3.3282442748091605,0.0916030534351145,0.0023195743560791016
1759,0.14453125,-0.0472412109375,-1.1976318359375,-0.0916030534351145,-3.33587786259542,-0.1450381679389313,0.0023179054260253906
1733,0.153564453125,-0.0413818359375,-1.1959228515625,0.0,-3.2442748091603053,0.061068702290076333,0.0023179054260253906
1697,0.1513671875,-0.0438232421875,-1.1961669921875,-0.20610687022900764,-3.3893129770992365,-0.04580152671755725,0.002316713333129883
1667,0.151611328125,-0.0477294921875,-1.1937255859375,-0.007633587786259542,-3.4427480916030535,0.030534351145038167,0.002318859100341797
1639,0.1494140625,-0.0450439453125,-1.1829833984375,-0.030534351145038167,-3.404580152671756,0.0916030534351145,0.0023179054260253906
1633,0.148681640625,-0.0428466796875,-1.1866455078125,-0.11450381679389313,-3.4656488549618323,0.22900763358778625,0.0023179054260253906
1610,0.14697265625,-0.0484619140625,-1.1839599609375,-0.03816793893129771,-3.3435114503816794,-0.03816793893129771,0.002317667007446289
1585,0.156494140625,-0.0445556640625,-1.1815185546875,-0.29770992366412213,-3.236641221374046,0.0,0.0023174285888671875
1558,0.147705078125,-0.0460205078125,-1.1893310546875,-0.07633587786259542,-3.3969465648854964,0.22137404580152673,0.0024993419647216797
1534,0.15283203125,-0.0438232421875,-1.1993408203125,-0.22137404580152673,-3.366412213740458,0.1297709923664122,0.0023925304412841797
1509,0.152099609375,-0.0455322265625,-1.1947021484375,-0.183206106870229,-3.366412213740458,-0.022900763358778626,0.0023260116577148438
1485,0.1533203125,-0.0460205078125,-1.1866455078125,-0.09923664122137404,-3.3435114503816794,0.0,0.002317190170288086
1459,0.1494140625,-0.0548095703125,-1.1859130859375,0.015267175572519083,-3.50381679389313,0.20610687022900764,0.002331972122192383
2703,0.15673828125,-0.0482177734375,-1.1893310546875,-0.183206106870229,-3.450381679389313,0.022900763358778626,0.002321004867553711
2643,0.15283203125,-0.0474853515625,-1.1910400390625,-0.15267175572519084,-3.381679389312977,0.19083969465648856,0.002319812774658203
2590,0.1572265625,-0.0472412109375,-1.1885986328125,-0.06870229007633588,-3.404580152671756,0.015267175572519083,0.0023200511932373047
2531,0.14892578125,-0.0474853515625,-1.1905517578125,-0.061068702290076333,-3.5114503816793894,0.05343511450381679,0.002318143844604492
2475,0.146728515625,-0.0543212890625,-1.1783447265625,-0.061068702290076333,-3.381679389312977,0.08396946564885496,0.002318143844604492
2424,0.15234375,-0.0545654296875,-1.1849365234375,-0.03816793893129771,-3.5572519083969465,0.0,0.0023186206817626953
2371,0.156005859375,-0.0533447265625,-1.1829833984375,-0.20610687022900764,-3.3893129770992365,-0.06870229007633588,0.0023179054260253906
2323,0.15185546875,-0.0543212890625,-1.1883544921875,-0.13740458015267176,-3.381679389312977,-0.007633587786259542,0.0023190975189208984
2283,0.15478515625,-0.0521240234375,-1.1873779296875,-0.13740458015267176,-3.5801526717557253,-0.12213740458015267,0.0023229122161865234
2247,0.149658203125,-0.0511474609375,-1.1903076171875,-0.061068702290076333,-3.4732824427480917,0.0,0.0023186206817626953
2215,0.1533203125,-0.0545654296875,-1.1959228515625,0.03816793893129771,-3.763358778625954,0.0916030534351145,0.0023164749145507812
2171,0.14892578125,-0.0533447265625,-1.1873779296875,0.0,-3.4885496183206106,0.0,0.0023174285888671875
2126,0.15771484375,-0.0543212890625,-1.1815185546875,-0.05343511450381679,-3.312977099236641,0.015267175572519083,0.002315044403076172
2084,0.149169921875,-0.0552978515625,-1.1927490234375,-0.022900763358778626,-3.572519083969466,-0.03816793893129771,0.0023190975189208984
2047,0.156494140625,-0.0543212890625,-1.1885986328125,-0.08396946564885496,-3.49618320610687,-0.25190839694656486,0.0023183822631835938
2012,0.1533203125,-0.0491943359375,-1.1915283203125,-0.16030534351145037,-3.648854961832061,-0.06870229007633588,0.002317190170288086
1975,0.154052734375,-0.0467529296875,-1.1927490234375,-0.022900763358778626,-3.618320610687023,-0.04580152671755725,0.002317667007446289
1951,0.154541015625,-0.0511474609375,-1.1929931640625,-0.09923664122137404,-3.519083969465649,0.08396946564885496,0.002317667007446289
1925,0.15625,-0.0506591796875,-1.1881103515625,0.030534351145038167,-3.7022900763358777,-0.15267175572519084,0.0023174285888671875
1897,0.148681640625,-0.0489501953125,-1.1856689453125,0.015267175572519083,-3.49618320610687,-0.13740458015267176,0.0023174285888671875
1861,0.1591796875,-0.0487060546875,-1.1802978515625,0.08396946564885496,-3.633587786259542,-0.05343511450381679,0.0023183822631835938
1826,0.144287109375,-0.0499267578125,-1.1973876953125,0.0,-3.427480916030534,-0.07633587786259542,0.0023179054260253906
1795,0.15380859375,-0.0445556640625,-1.1947021484375,0.0,-3.50381679389313,0.007633587786259542,0.002315044403076172
1764,0.146240234375,-0.0499267578125,-1.1900634765625,0.007633587786259542,-3.3969465648854964,-0.15267175572519084,0.002315521240234375
1732,0.154541015625,-0.0499267578125,-1.1929931640625,-0.022900763358778626,-3.7480916030534353,-0.015267175572519083,0.002318143844604492
1707,0.155029296875,-0.0396728515625,-1.1885986328125,-0.12213740458015267,-3.549618320610687,-0.06870229007633588,0.0023186206817626953
1691,0.151611328125,-0.0440673828125,-1.1866455078125,-0.015267175572519083,-3.7022900763358777,0.0,0.0023186206817626953
1671,0.15087890625,-0.0416259765625,-1.1937255859375,-0.05343511450381679,-3.5801526717557253,0.0,0.0023157596588134766
1649,0.16259765625,-0.0457763671875,-1.1988525390625,0.0,-3.3435114503816794,0.0,0.0023164749145507812
1621,0.1494140625,-0.0418701171875,-1.1937255859375,-0.1450381679389313,-3.5267175572519083,0.030534351145038167,0.0023136138916015625
1593,0.150390625,-0.0413818359375,-1.1939697265625,0.061068702290076333,-3.717557251908397,0.015267175572519083,0.002317667007446289
1563,0.14501953125,-0.0406494140625,-1.1971435546875,-0.11450381679389313,-3.66412213740458,0.0,0.0023169517517089844
1535,0.150390625,-0.0426025390625,-1.1944580078125,-0.11450381679389313,-3.5877862595419847,0.11450381679389313,0.002315998077392578
1509,0.150146484375,-0.0443115234375,-1.1878662109375,-0.030534351145038167,-3.519083969465649,-0.16030534351145037,0.0023179054260253906
1487,0.14990234375,-0.0430908203125,-1.1898193359375,0.015267175572519083,-3.5419847328244276,0.12213740458015267,0.002317190170288086
1450,0.156005859375,-0.0455322265625,-1.1859130859375,0.07633587786259542,-3.6106870229007635,-0.11450381679389313,0.0023174285888671875
1435,0.1455078125,-0.0462646484375,-1.1907958984375,-0.1450381679389313,-3.5419847328244276,0.10687022900763359,0.0023190975189208984
1412,0.150634765625,-0.0447998046875,-1.1883544921875,0.06870229007633588,-3.450381679389313,-0.03816793893129771,0.0023238658905029297
1387,0.150634765625,-0.0465087890625,-1.1915283203125,-0.08396946564885496,-3.4732824427480917,-0.061068702290076333,0.002318143844604492
1370,0.153076171875,-0.0426025390625,-1.1912841796875,0.030534351145038167,-3.6717557251908395,-0.03816793893129771,0.0023207664489746094
1348,0.14794921875,-0.0384521484375,-1.1893310546875,0.007633587786259542,-3.6106870229007635,0.007633587786259542,0.0023190975189208984
1326,0.150634765625,-0.0418701171875,-1.1871337890625,-0.29770992366412213,-3.5572519083969465,0.08396946564885496,0.002317190170288086
1306,0.1435546875,-0.0430908203125,-1.1864013671875,-0.061068702290076333,-3.3206106870229006,0.007633587786259542,0.0023174285888671875
2728,0.153564453125,-0.0472412109375,-1.1932373046875,-0.16030534351145037,-3.5267175572519083,0.09923664122137404,0.002317190170288086
2663,0.149169921875,-0.0411376953125,-1.1856689453125,0.0,-3.2900763358778624,0.022900763358778626,0.002317190170288086
2610,0.145263671875,-0.0460205078125,-1.1949462890625,-0.08396946564885496,-3.480916030534351,0.183206106870229,0.0023164749145507812
2547,0.150146484375,-0.0438232421875,-1.1832275390625,-0.183206106870229,-3.33587786259542,0.04580152671755725,0.0023162364959716797
2490,0.1484375,-0.0491943359375,-1.1954345703125,-0.12213740458015267,-3.2977099236641223,0.030534351145038167,0.0023186206817626953
2439,0.145751953125,-0.0447998046875,-1.1905517578125,-0.015267175572519083,-3.381679389312977,-0.09923664122137404,0.002318143844604492
2389,0.15234375,-0.0494384765625,-1.1864013671875,-0.05343511450381679,-3.3893129770992365,-0.10687022900763359,0.002318143844604492
2338,0.15087890625,-0.0460205078125,-1.1949462890625,-0.08396946564885496,-3.282442748091603,-0.015267175572519083,0.0023179054260253906
2295,0.15576171875,-0.0465087890625,-1.1951904296875,-0.022900763358778626,-3.480916030534351,-0.0916030534351145,0.002317190170288086
2260,0.15380859375,-0.0501708984375,-1.1861572265625,-0.2900763358778626,-3.4885496183206106,0.030534351145038167,0.002318859100341797
2223,0.146484375,-0.0509033203125,-1.1927490234375,-0.10687022900763359,-3.2748091603053435,0.0,0.0023164749145507812
2182,0.15478515625,-0.0496826171875,-1.1900634765625,-0.1984732824427481,-3.33587786259542,0.05343511450381679,0.0023164749145507812
2137,0.15234375,-0.0428466796875,-1.1922607421875,-0.09923664122137404,-3.267175572519084,0.21374045801526717,0.0023169517517089844
2094,0.158935546875,-0.0474853515625,-1.1898193359375,-0.09923664122137404,-3.549618320610687,-0.04580152671755725,0.0023322105407714844
2057,0.156982421875,-0.0516357421875,-1.1888427734375,-0.22137404580152673,-3.3282442748091605,-0.022900763358778626,0.0024509429931640625
2019,0.1552734375,-0.0526123046875,-1.1890869140625,-0.12213740458015267,-3.312977099236641,-0.022900763358778626,0.0023250579833984375
1982,0.147216796875,-0.0487060546875,-1.1890869140625,0.05343511450381679,-3.381679389312977,-0.061068702290076333,0.002336263656616211
1955,0.150390625,-0.0518798828125,-1.1900634765625,-0.16793893129770993,-3.49618320610687,-0.09923664122137404,0.0023186206817626953
1930,0.1611328125,-0.0513916015625,-1.1837158203125,-0.05343511450381679,-3.3893129770992365,0.12213740458015267,0.0023190975189208984
1904,0.1455078125,-0.0511474609375,-1.1866455078125,0.061068702290076333,-3.5572519083969465,0.19083969465648856,0.002318143844604492
1865,0.1533203125,-0.0474853515625,-1.1773681640625,-0.015267175572519083,-3.519083969465649,-0.12213740458015267,0.0023179054260253906
1831,0.15478515625,-0.0462646484375,-1.1881103515625,-0.030534351145038167,-3.236641221374046,-0.030534351145038167,0.0023186206817626953
1802,0.15380859375,-0.0469970703125,-1.1859130859375,-0.19083969465648856,-3.5572519083969465,-0.022900763358778626,0.0023169517517089844
1773,0.159912109375,-0.0489501953125,-1.1895751953125,-0.12213740458015267,-3.564885496183206,-0.09923664122137404,0.0023179054260253906
1746,0.158935546875,-0.0506591796875,-1.1856689453125,-0.061068702290076333,-3.572519083969466,-0.1297709923664122,0.0023183822631835938
1719,0.149658203125,-0.0516357421875,-1.1937255859375,-0.05343511450381679,-3.5114503816793894,0.007633587786259542,0.002318859100341797
1700,0.151123046875,-0.0484619140625,-1.1971435546875,-0.04580152671755725,-3.50381679389313,-0.007633587786259542,0.002318859100341797
1681,0.150390625,-0.0531005859375,-1.1917724609375,-0.030534351145038167,-3.450381679389313,-0.15267175572519084,0.0023186206817626953
1660,0.148681640625,-0.0494384765625,-1.1849365234375,-0.12213740458015267,-3.5419847328244276,-0.030534351145038167,0.0023183822631835938
1631,0.153564453125,-0.0560302734375,-1.1966552734375,-0.25190839694656486,-3.5572519083969465,0.0,0.0023772716522216797
1606,0.15380859375,-0.0521240234375,-1.1890869140625,-0.04580152671755725,-3.3740458015267176,0.022900763358778626,0.0023212432861328125
1582,0.154296875,-0.0518798828125,-1.1883544921875,-0.1450381679389313,-3.618320610687023,0.022900763358778626,0.0023212432861328125
1555,0.15087890625,-0.0479736328125,-1.1883544921875,0.007633587786259542,-3.801526717557252,-0.1297709923664122,0.0023186206817626953
1526,0.151123046875,-0.0457763671875,-1.1947021484375,0.0,-3.4122137404580153,0.06870229007633588,0.0023193359375
1503,0.154052734375,-0.0450439453125,-1.1844482421875,0.04580152671755725,-3.549618320610687,-0.03816793893129771,0.002315044403076172
1467,0.15625,-0.0443115234375,-1.1907958984375,-0.061068702290076333,-3.66412213740458,-0.07633587786259542,0.002318859100341797
1455,0.149169921875,-0.0472412109375,-1.1927490234375,-0.12213740458015267,-3.6259541984732824,0.08396946564885496,0.0023179054260253906
1434,0.1591796875,-0.0438232421875,-1.1842041015625,0.007633587786259542,-3.3282442748091605,-0.0916030534351145,0.0023183822631835938
1410,0.154052734375,-0.0413818359375,-1.1898193359375,-0.15267175572519084,-3.6030534351145036,0.06870229007633588,0.002317667007446289
1388,0.15234375,-0.0467529296875,-1.1903076171875,-0.061068702290076333,-3.595419847328244,-0.22137404580152673,0.002327442169189453
1370,0.146240234375,-0.0418701171875,-1.1849365234375,-0.10687022900763359,-3.5419847328244276,-0.05343511450381679,0.0023190975189208984
1350,0.142578125,-0.0489501953125,-1.1954345703125,-0.015267175572519083,-3.3435114503816794,-0.10687022900763359,0.002317190170288086
1329,0.147216796875,-0.0445556640625,-1.1849365234375,0.022900763358778626,-3.633587786259542,0.05343511450381679,0.0023174285888671875
2666,0.1533203125,-0.0479736328125,-1.1881103515625,-0.1450381679389313,-3.6106870229007635,-0.007633587786259542,0.002316713333129883
2609,0.155029296875,-0.0433349609375,-1.1868896484375,0.0,-3.564885496183206,-0.007633587786259542,0.0023174285888671875
2557,0.15234375,-0.0469970703125,-1.1903076171875,-0.16793893129770993,-3.4885496183206106,-0.022900763358778626,0.002318859100341797
2502,0.14990234375,-0.0491943359375,-1.1871337890625,0.06870229007633588,-3.5877862595419847,-0.15267175572519084,0.0023179054260253906
2446,0.147705078125,-0.0404052734375,-1.1934814453125,-0.09923664122137404,-3.4656488549618323,-0.1450381679389313,0.002317667007446289
2399,0.15087890625,-0.0416259765625,-1.1917724609375,-0.1450381679389313,-3.7251908396946565,-0.09923664122137404,0.002317667007446289
2351,0.151123046875,-0.0460205078125,-1.1873779296875,-0.07633587786259542,-3.3893129770992365,-0.022900763358778626,0.002317190170288086
2302,0.1455078125,-0.0430908203125,-1.1907958984375,-0.061068702290076333,-3.282442748091603,-0.13740458015267176,0.0023179054260253906
2261,0.147216796875,-0.0489501953125,-1.1868896484375,-0.022900763358778626,-3.4732824427480917,-0.03816793893129771,0.0023179054260253906
2227,0.143310546875,-0.0452880859375,-1.1842041015625,0.022900763358778626,-3.312977099236641,0.16030534351145037,0.002318859100341797
2189,0.145263671875,-0.0433349609375,-1.1881103515625,-0.10687022900763359,-3.519083969465649,-0.09923664122137404,0.0023179054260253906
2151,0.148193359375,-0.0450439453125,-1.1866455078125,-0.15267175572519084,-3.427480916030534,0.1450381679389313,0.0023179054260253906
2109,0.1513671875,-0.0465087890625,-1.1917724609375,-0.022900763358778626,-3.5267175572519083,0.1297709923664122,0.0023179054260253906
2067,0.14599609375,-0.0462646484375,-1.1878662109375,-0.061068702290076333,-3.4885496183206106,-0.22137404580152673,0.0023174285888671875
2032,0.1552734375,-0.0460205078125,-1.1927490234375,-0.13740458015267176,-3.49618320610687,0.015267175572519083,0.0023183822631835938
1993,0.15380859375,-0.0450439453125,-1.1917724609375,-0.16030534351145037,-3.366412213740458,0.03816793893129771,0.0023169517517089844
1954,0.157470703125,-0.0501708984375,-1.1868896484375,-0.08396946564885496,-3.3053435114503817,0.061068702290076333,0.002318143844604492
1925,0.14599609375,-0.0474853515625,-1.1917724609375,-0.0916030534351145,-3.4885496183206106,0.05343511450381679,0.0023162364959716797
1899,0.15185546875,-0.0504150390625,-1.1881103515625,-0.20610687022900764,-3.4122137404580153,0.16030534351145037,0.002317667007446289
1875,0.15087890625,-0.0443115234375,-1.1871337890625,-0.16030534351145037,-3.33587786259542,0.007633587786259542,0.0023169517517089844
1842,0.154541015625,-0.0501708984375,-1.2015380859375,-0.015267175572519083,-3.404580152671756,0.061068702290076333,0.0023174285888671875
1807,0.155029296875,-0.0479736328125,-1.1915283203125,-0.05343511450381679,-3.3740458015267176,-0.015267175572519083,0.0023186206817626953
1780,0.1513671875,-0.0516357421875,-1.1920166015625,-0.11450381679389313,-3.3893129770992365,0.015267175572519083,0.0023174285888671875
1750,0.152587890625,-0.0545654296875,-1.1871337890625,0.007633587786259542,-3.450381679389313,0.07633587786259542,0.002320528030395508
1717,0.14501953125,-0.0433349609375,-1.1978759765625,-0.05343511450381679,-3.6717557251908395,0.183206106870229,0.002317667007446289
1689,0.15673828125,-0.0491943359375,-1.2015380859375,-0.06870229007633588,-3.4580152671755724,0.030534351145038167,0.0023174285888671875
1667,0.15478515625,-0.0518798828125,-1.1815185546875,-0.1450381679389313,-3.4656488549618323,0.11450381679389313,0.0023424625396728516
1647,0.15576171875,-0.0513916015625,-1.1903076171875,-0.15267175572519084,-3.1908396946564888,0.10687022900763359,0.0023195743560791016
1626,0.156494140625,-0.0474853515625,-1.1800537109375,-0.022900763358778626,-3.572519083969466,0.030534351145038167,0.0023186206817626953
1596,0.158935546875,-0.0491943359375,-1.1920166015625,-0.11450381679389313,-3.4427480916030535,0.0916030534351145,0.0023169517517089844
1569,0.150634765625,-0.0543212890625,-1.1837158203125,-0.09923664122137404,-3.633587786259542,0.07633587786259542,0.0023186206817626953
1544,0.149658203125,-0.0482177734375,-1.1888427734375,-0.08396946564885496,-3.381679389312977,-0.16793893129770993,0.0023174285888671875
1519,0.14599609375,-0.0501708984375,-1.1885986328125,-0.16793893129770993,-3.3587786259541983,0.007633587786259542,0.002496004104614258
1492,0.153076171875,-0.0469970703125,-1.1915283203125,-0.022900763358778626,-3.2595419847328246,-0.022900763358778626,0.0023469924926757812
1470,0.148193359375,-0.0509033203125,-1.1929931640625,0.007633587786259542,-3.564885496183206,0.022900763358778626,0.002321004867553711
1436,0.154052734375,-0.0460205078125,-1.1839599609375,-0.08396946564885496,-3.50381679389313,0.16793893129770993,0.0023229122161865234
1423,0.150390625,-0.0511474609375,-1.1954345703125,-0.04580152671755725,-3.480916030534351,0.0,0.0023221969604492188
1403,0.155517578125,-0.0484619140625,-1.1925048828125,-0.015267175572519083,-3.648854961832061,-0.030534351145038167,0.0023260116577148438
1384,0.156005859375,-0.0509033203125,-1.1951904296875,-0.12213740458015267,-3.4732824427480917,-0.015267175572519083,0.0023202896118164062
1367,0.1552734375,-0.0472412109375,-1.1895751953125,-0.16793893129770993,-3.3893129770992365,-0.030534351145038167,0.0023186206817626953
1351,0.154541015625,-0.0479736328125,-1.1949462890625,-0.061068702290076333,-3.5343511450381677,-0.08396946564885496,0.0023190975189208984
1331,0.156494140625,-0.0501708984375,-1.1939697265625,0.0,-3.4656488549618323,-0.061068702290076333,0.0023183822631835938
1309,0.150390625,-0.0433349609375,-1.1773681640625,-0.030534351145038167,-3.648854961832061,0.0,0.0023164749145507812
2864,0.16259765625,-0.0491943359375,-1.1810302734375,0.030534351145038167,-3.6793893129770994,-0.12213740458015267,0.0023162364959716797
2795,0.154296875,-0.0472412109375,-1.1888427734375,-0.007633587786259542,-3.6259541984732824,-0.12213740458015267,0.002318143844604492
2741,0.154541015625,-0.0494384765625,-1.1854248046875,-0.04580152671755725,-3.519083969465649,-0.04580152671755725,0.0023193359375
2677,0.148193359375,-0.0516357421875,-1.1866455078125,-0.06870229007633588,-3.519083969465649,-0.015267175572519083,0.0023164749145507812
2618,0.1533203125,-0.0428466796875,-1.1885986328125,0.022900763358778626,-3.549618320610687,0.06870229007633588,0.0023179054260253906
2561,0.146240234375,-0.0452880859375,-1.1922607421875,-0.03816793893129771,-3.6946564885496183,-0.15267175572519084,0.002317667007446289
2507,0.15283203125,-0.0511474609375,-1.1844482421875,-0.11450381679389313,-3.427480916030534,0.015267175572519083,0.002318143844604492
2453,0.154052734375,-0.0452880859375,-1.1954345703125,0.022900763358778626,-3.4198473282442747,0.10687022900763359,0.002316713333129883
2403,0.14501953125,-0.0487060546875,-1.1922607421875,-0.061068702290076333,-3.7251908396946565,-0.10687022900763359,0.0023407936096191406
2363,0.15576171875,-0.0489501953125,-1.1900634765625,-0.16793893129770993,-3.5419847328244276,-0.09923664122137404,0.002318859100341797
2327,0.150146484375,-0.0406494140625,-1.1876220703125,-0.17557251908396945,-3.5114503816793894,0.007633587786259542,0.002317667007446289
2288,0.15234375,-0.0455322265625,-1.1910400390625,-0.0916030534351145,-3.5343511450381677,0.0916030534351145,0.0023174285888671875
2240,0.15380859375,-0.0462646484375,-1.1864013671875,-0.09923664122137404,-3.5114503816793894,0.030534351145038167,0.0023169517517089844
2194,0.146728515625,-0.0440673828125,-1.1929931640625,-0.2366412213740458,-3.5801526717557253,-0.007633587786259542,0.002317667007446289
2155,0.1455078125,-0.0465087890625,-1.1920166015625,0.030534351145038167,-3.633587786259542,0.007633587786259542,0.0023200511932373047
2113,0.150146484375,-0.0467529296875,-1.1898193359375,-0.015267175572519083,-3.5801526717557253,0.11450381679389313,0.0023164749145507812
2070,0.14453125,-0.0469970703125,-1.1932373046875,0.03816793893129771,-3.49618320610687,0.030534351145038167,0.0023190975189208984
2037,0.148681640625,-0.0416259765625,-1.1986083984375,-0.183206106870229,-3.6259541984732824,0.03816793893129771,0.002317667007446289
2007,0.14697265625,-0.0416259765625,-1.1927490234375,0.022900763358778626,-3.49618320610687,-0.030534351145038167,0.0023174285888671875
1981,0.148193359375,-0.0445556640625,-1.1873779296875,-0.2595419847328244,-3.4732824427480917,0.0,0.0023179054260253906
1945,0.156982421875,-0.0489501953125,-1.1917724609375,-0.12213740458015267,-3.2977099236641223,-0.015267175572519083,0.002320528030395508
1911,0.1455078125,-0.0416259765625,-1.1998291015625,-0.05343511450381679,-3.6106870229007635,0.05343511450381679,0.002318143844604492
1879,0.158203125,-0.0418701171875,-1.1939697265625,-0.03816793893129771,-3.4580152671755724,-0.11450381679389313,0.002316713333129883
1848,0.150390625,-0.0426025390625,-1.1976318359375,-0.16030534351145037,-3.33587786259542,0.22137404580152673,0.002318143844604492
1814,0.147705078125,-0.0499267578125,-1.1937255859375,-0.061068702290076333,-3.4580152671755724,0.0,0.002316713333129883
1784,0.1572265625,-0.0443115234375,-1.1864013671875,-0.10687022900763359,-3.427480916030534,-0.05343511450381679,0.0023360252380371094
1763,0.14599609375,-0.0416259765625,-1.1929931640625,-0.1297709923664122,-3.564885496183206,-0.030534351145038167,0.0023183822631835938
1743,0.155029296875,-0.0452880859375,-1.1851806640625,-0.03816793893129771,-3.435114503816794,-0.10687022900763359,0.002316713333129883
1721,0.1484375,-0.0430908203125,-1.1910400390625,-0.06870229007633588,-3.427480916030534,-0.15267175572519084,0.0023186206817626953
1692,0.14892578125,-0.0482177734375,-1.1988525390625,-0.03816793893129771,-3.435114503816794,0.16030534351145037,0.0023164749145507812
1663,0.154052734375,-0.0467529296875,-1.1939697265625,-0.09923664122137404,-3.549618320610687,0.04580152671755725,0.002318143844604492
1637,0.146240234375,-0.0511474609375,-1.1954345703125,-0.15267175572519084,-3.6030534351145036,0.09923664122137404,0.002316713333129883
1609,0.153564453125,-0.0445556640625,-1.1912841796875,-0.21374045801526717,-3.3969465648854964,-0.04580152671755725,0.002317667007446289
1581,0.15625,-0.0499267578125,-1.1849365234375,0.015267175572519083,-3.3893129770992365,0.07633587786259542,0.0023190975189208984
1556,0.149169921875,-0.0484619140625,-1.1925048828125,-0.17557251908396945,-3.435114503816794,0.007633587786259542,0.0023162364959716797
1539,0.153076171875,-0.0474853515625,-1.1922607421875,-0.09923664122137404,-3.236641221374046,0.015267175572519083,0.0023183822631835938
1522,0.144775390625,-0.0565185546875,-1.1927490234375,0.061068702290076333,-3.3893129770992365,0.007633587786259542,0.002317667007446289
1495,0.148681640625,-0.0455322265625,-1.1922607421875,-0.1297709923664122,-3.4580152671755724,0.07633587786259542,0.0023169517517089844
1469,0.1513671875,-0.0513916015625,-1.1866455078125,-0.15267175572519084,-3.4732824427480917,0.06870229007633588,0.002317667007446289
1447,0.14794921875,-0.0513916015625,-1.1854248046875,-0.2595419847328244,-3.519083969465649,0.09923664122137404,0.0023207664489746094
1424,0.15625,-0.0484619140625,-1.1944580078125,-0.11450381679389313,-3.4198473282442747,-0.1450381679389313,0.002318143844604492
1403,0.150146484375,-0.0552978515625,-1.1929931640625,-0.12213740458015267,-3.5801526717557253,-0.007633587786259542,0.0023164749145507812
1383,0.162109375,-0.0491943359375,-1.1859130859375,-0.022900763358778626,-3.450381679389313,-0.09923664122137404,0.0023245811462402344
1366,0.15576171875,-0.0491943359375,-1.1993408203125,0.007633587786259542,-3.3435114503816794,0.08396946564885496,0.002318143844604492
1339,0.151123046875,-0.0513916015625,-1.1956787109375,-0.0916030534351145,-3.366412213740458,0.0,0.002317667007446289
1328,0.149658203125,-0.0513916015625,-1.1903076171875,-0.09923664122137404,-3.66412213740458,0.07633587786259542,0.0023164749145507812
1307,0.154052734375,-0.0501708984375,-1.1973876953125,-0.22137404580152673,-3.4656488549618323,-0.030534351145038167,0.002316713333129883
1288,0.15087890625,-0.0518798828125,-1.1907958984375,-0.061068702290076333,-3.564885496183206,0.007633587786259542,0.0023190975189208984
1274,0.152587890625,-0.0467529296875,-1.1890869140625,-0.13740458015267176,-3.3969465648854964,0.06870229007633588,0.002317190170288086
1254,0.14697265625,-0.0465087890625,-1.1915283203125,-0.1297709923664122,-3.4656488549618323,0.11450381679389313,0.0023183822631835938
1235,0.15869140625,-0.0579833984375,-1.1990966796875,0.007633587786259542,-3.5419847328244276,0.007633587786259542,0.0024423599243164062
1921,0.1484375,-0.0501708984375,-1.1888427734375,-0.061068702290076333,-3.5572519083969465,0.030534351145038167,0.0023272037506103516
2729,0.148681640625,-0.0499267578125,-1.1807861328125,-0.0916030534351145,-3.4885496183206106,-0.1297709923664122,0.0023195743560791016
2672,0.14892578125,-0.0521240234375,-1.1900634765625,-0.015267175572519083,-3.6412213740458017,-0.015267175572519083,0.002354145050048828
2617,0.158203125,-0.0545654296875,-1.1881103515625,0.06870229007633588,-3.633587786259542,0.061068702290076333,0.0023255348205566406
2553,0.15673828125,-0.0467529296875,-1.1954345703125,-0.022900763358778626,-3.687022900763359,-0.05343511450381679,0.002317190170288086
2499,0.15380859375,-0.0465087890625,-1.1932373046875,0.015267175572519083,-3.6412213740458017,-0.0916030534351145,0.0023186206817626953
2446,0.153564453125,-0.0499267578125,-1.1968994140625,-0.15267175572519084,-3.450381679389313,0.07633587786259542,0.002318859100341797
2393,0.15478515625,-0.0550537109375,-1.1942138671875,-0.030534351145038167,-3.6717557251908395,0.0,0.002318143844604492
2338,0.16259765625,-0.0499267578125,-1.1871337890625,0.0,-3.4427480916030535,0.0916030534351145,0.002424955368041992
2295,0.14697265625,-0.0487060546875,-1.1964111328125,-0.05343511450381679,-3.5267175572519083,-0.1984732824427481,0.002537965774536133
2258,0.15771484375,-0.0443115234375,-1.1954345703125,-0.061068702290076333,-3.5801526717557253,0.10687022900763359,0.002551555633544922
2221,0.15234375,-0.0426025390625,-1.1868896484375,0.0,-3.7404580152671754,-0.07633587786259542,0.0023458003997802734
2173,0.14990234375,-0.0452880859375,-1.1864013671875,0.015267175572519083,-3.572519083969466,0.0,0.0023202896118164062
2128,0.153564453125,-0.0460205078125,-1.1890869140625,-0.16030534351145037,-3.595419847328244,0.007633587786259542,0.002318859100341797
2092,0.1494140625,-0.0440673828125,-1.1866455078125,-0.015267175572519083,-3.6106870229007635,0.022900763358778626,0.0023186206817626953
2051,0.143310546875,-0.0455322265625,-1.1907958984375,0.09923664122137404,-3.6564885496183206,0.06870229007633588,0.002318859100341797
2007,0.15625,-0.0474853515625,-1.1903076171875,0.0,-3.4885496183206106,-0.12213740458015267,0.0023193359375
1976,0.15234375,-0.0440673828125,-1.1912841796875,0.0916030534351145,-3.435114503816794,-0.1297709923664122,0.002315044403076172
1948,0.158203125,-0.0467529296875,-1.1846923828125,-0.007633587786259542,-3.633587786259542,-0.07633587786259542,0.0023193359375
1921,0.145263671875,-0.0404052734375,-1.1939697265625,-0.0916030534351145,-3.4885496183206106,0.007633587786259542,0.002316713333129883
1892,0.14599609375,-0.0452880859375,-1.1976318359375,-0.24427480916030533,-3.5877862595419847,0.183206106870229,0.0023183822631835938
1855,0.154296875,-0.0362548828125,-1.1864013671875,0.007633587786259542,-3.5877862595419847,0.007633587786259542,0.0023179054260253906
1823,0.14306640625,-0.0443115234375,-1.1910400390625,-0.10687022900763359,-3.3053435114503817,-0.03816793893129771,0.0023174285888671875
1794,0.150634765625,-0.0443115234375,-1.1881103515625,-0.03816793893129771,-3.480916030534351,0.22137404580152673,0.0023195743560791016
1762,0.14111328125,-0.0406494140625,-1.1942138671875,-0.03816793893129771,-3.6106870229007635,-0.061068702290076333,0.0023174285888671875
1731,0.15380859375,-0.0394287109375,-1.1854248046875,-0.05343511450381679,-3.404580152671756,-0.015267175572519083,0.0023195743560791016
1711,0.15478515625,-0.0455322265625,-1.1881103515625,0.015267175572519083,-3.381679389312977,-0.03816793893129771,0.0023183822631835938
1690,0.142578125,-0.0457763671875,-1.1912841796875,-0.10687022900763359,-3.33587786259542,-0.0916030534351145,0.002318143844604492
1671,0.15234375,-0.0452880859375,-1.1966552734375,-0.022900763358778626,-3.4580152671755724,0.1450381679389313,0.002317667007446289
1641,0.153076171875,-0.0465087890625,-1.1876220703125,-0.08396946564885496,-3.450381679389313,0.0,0.0023305416107177734
1615,0.1572265625,-0.0447998046875,-1.1834716796875,-0.08396946564885496,-3.435114503816794,-0.04580152671755725,0.002318143844604492
1589,0.154052734375,-0.0465087890625,-1.1917724609375,-0.15267175572519084,-3.427480916030534,0.10687022900763359,0.0023169517517089844
1564,0.153076171875,-0.0504150390625,-1.1907958984375,-0.15267175572519084,-3.435114503816794,-0.015267175572519083,0.002317667007446289
