emg_0,emg_1,emg_2,emg_3,emg_4,acc_x,acc_y,acc_z,gyro_x,gyro_y,gyro_z,dt
0.0916030534351145,-3.5267175572519083,-0.1297709923664122,0.19962072372436523
0.19083969465648856,-3.3969465648854964,-0.1297709923664122,0.001089334487915039
0.19083969465648856,-3.2977099236641223,0.061068702290076333,0.0010135173797607422
0.1450381679389313,-3.3053435114503817,0.08396946564885496,0.0010273456573486328
0.04580152671755725,-3.381679389312977,0.10687022900763359,0.0010068416595458984
-0.015267175572519083,-3.404580152671756,-0.12213740458015267,0.0016121864318847656
0.007633587786259542,-3.6793893129770994,-0.2595419847328244,0.0010309219360351562
0.03816793893129771,-3.618320610687023,-0.11450381679389313,0.0009202957153320312
0.07633587786259542,-3.7709923664122136,0.0,0.0009431838989257812
-0.09923664122137404,-3.8625954198473282,0.03816793893129771,0.0009109973907470703
-0.007633587786259542,-3.5267175572519083,0.06870229007633588,0.000946044921875
-0.061068702290076333,-3.1908396946564888,0.007633587786259542,0.0009570121765136719
-0.05343511450381679,-3.3282442748091605,0.10687022900763359,0.0009436607360839844
0.03816793893129771,-3.4427480916030535,-0.04580152671755725,0.0009758472442626953
0.22137404580152673,-3.3740458015267176,-0.022900763358778626,0.0009775161743164062
0.29770992366412213,-3.4122137404580153,0.04580152671755725,0.0009396076202392578
0.022900763358778626,-3.450381679389313,0.15267175572519084,0.0009126663208007812
-0.03816793893129771,-3.3587786259541983,0.12213740458015267,0.0009033679962158203
-0.030534351145038167,-3.3206106870229006,0.022900763358778626,0.0009031295776367188
-0.07633587786259542,-3.3893129770992365,-0.04580152671755725,0.0009028911590576172
-0.007633587786259542,-3.480916030534351,-0.1450381679389313,0.0009024143218994141
-0.0916030534351145,-3.633587786259542,-0.030534351145038167,0.0009028911590576172
-0.12213740458015267,-3.6793893129770994,0.061068702290076333,0.0009336471557617188
0.0,-3.763358778625954,0.007633587786259542,0.0010464191436767578
0.16030534351145037,-3.5877862595419847,-0.07633587786259542,0.001155853271484375
0.1450381679389313,-3.595419847328244,-0.11450381679389313,0.0010247230529785156
0.11450381679389313,-3.572519083969466,-0.03816793893129771,0.0010352134704589844
0.10687022900763359,-3.435114503816794,0.007633587786259542,0.0009746551513671875
0.007633587786259542,-3.381679389312977,0.15267175572519084,0.0009608268737792969
-0.07633587786259542,-3.4580152671755724,0.10687022900763359,0.00099945068359375
0.0,-3.50381679389313,0.061068702290076333,0.0010170936584472656
0.08396946564885496,-3.480916030534351,0.015267175572519083,0.000972747802734375
0.06870229007633588,-3.4656488549618323,0.06870229007633588,0.0009624958038330078
0.0,-3.4427480916030535,0.061068702290076333,0.0009860992431640625
0.05343511450381679,-3.6030534351145036,-0.13740458015267176,0.0009753704071044922
0.1450381679389313,-3.6030534351145036,-0.16030534351145037,0.0009546279907226562
0.09923664122137404,-3.549618320610687,-0.13740458015267176,0.0009484291076660156
0.13740458015267176,-3.564885496183206,0.007633587786259542,0.0009484291076660156
0.19083969465648856,-3.50381679389313,0.03816793893129771,0.000949859619140625
0.1984732824427481,-3.4656488549618323,0.0,0.0009493827819824219
0.1450381679389313,-3.3969465648854964,-0.06870229007633588,0.0009489059448242188
0.007633587786259542,-3.4122137404580153,0.0,0.0009527206420898438
-0.061068702290076333,-3.312977099236641,0.03816793893129771,0.0009541511535644531
0.022900763358778626,-3.3053435114503817,0.183206106870229,0.0009450912475585938
0.061068702290076333,-3.312977099236641,0.1984732824427481,0.0009398460388183594
0.07633587786259542,-3.427480916030534,0.15267175572519084,0.0009629726409912109
0.10687022900763359,-3.5801526717557253,-0.09923664122137404,0.0009458065032958984
0.10687022900763359,-3.687022900763359,-0.10687022900763359,0.0009424686431884766
0.17557251908396945,-3.5114503816793894,0.015267175572519083,0.0009520053863525391
0.13740458015267176,-3.5572519083969465,0.022900763358778626,0.0009407997131347656
0.1450381679389313,-3.5801526717557253,-0.015267175572519083,0.0009431838989257812
-0.030534351145038167,-3.5801526717557253,0.04580152671755725,0.0009469985961914062
-0.007633587786259542,-3.5343511450381677,0.061068702290076333,0.000926971435546875
-0.1450381679389313,-3.3587786259541983,0.0,0.001062154769897461
-0.16030534351145037,-3.50381679389313,0.19083969465648856,0.0011055469512939453
0.03816793893129771,-3.5267175572519083,0.0,0.0010571479797363281
0.09923664122137404,-3.5572519083969465,-0.15267175572519084,0.0010039806365966797
0.07633587786259542,-3.572519083969466,-0.09923664122137404,0.0010268688201904297
0.1450381679389313,-3.5419847328244276,-0.2366412213740458,0.0010142326354980469
0.16793893129770993,-3.4885496183206106,-0.13740458015267176,0.0009555816650390625
0.21374045801526717,-3.450381679389313,-0.06870229007633588,0.0009081363677978516
0.09923664122137404,-3.427480916030534,-0.061068702290076333,0.0009112358093261719
-0.022900763358778626,-3.5114503816793894,-0.061068702290076333,0.0009565353393554688
0.0,-3.5343511450381677,-0.10687022900763359,0.0009350776672363281
0.05343511450381679,-3.5801526717557253,-0.10687022900763359,0.0009081363677978516
0.0,-3.5343511450381677,-0.022900763358778626,0.000904083251953125
-0.13740458015267176,-3.3435114503816794,-0.022900763358778626,0.0009024143218994141
-0.10687022900763359,-3.145038167938931,-0.061068702290076333,0.0009491443634033203
0.05343511450381679,-3.213740458015267,-0.061068702290076333,0.000997781753540039
0.183206106870229,-3.312977099236641,-0.06870229007633588,0.0009622573852539062
0.1450381679389313,-3.3969465648854964,-0.015267175572519083,0.0009562969207763672
-0.05343511450381679,-3.282442748091603,-0.015267175572519083,0.0009665489196777344
-0.04580152671755725,-3.351145038167939,0.0,0.0010075569152832031
-0.015267175572519083,-3.519083969465649,0.007633587786259542,0.0009629726409912109
0.007633587786259542,-3.5114503816793894,-0.015267175572519083,0.0009140968322753906
0.007633587786259542,-3.4656488549618323,0.0,0.0009055137634277344
-0.030534351145038167,-3.404580152671756,0.0,0.0009338855743408203
-0.0916030534351145,-3.2977099236641223,0.17557251908396945,0.0009360313415527344
0.015267175572519083,-3.2748091603053435,0.25190839694656486,0.0010509490966796875
0.022900763358778626,-3.2442748091603053,0.0916030534351145,0.0009477138519287109
0.0,-3.435114503816794,-0.13740458015267176,0.0010161399841308594
-0.015267175572519083,-3.4122137404580153,-0.08396946564885496,0.0010480880737304688
0.022900763358778626,-3.519083969465649,-0.0916030534351145,0.0010981559753417969
0.030534351145038167,-3.6412213740458017,0.0,0.0010786056518554688
0.20610687022900764,-3.4122137404580153,0.022900763358778626,0.00102996826171875
0.25190839694656486,-3.2748091603053435,-0.015267175572519083,0.000934600830078125
0.12213740458015267,-3.33587786259542,0.030534351145038167,0.000911712646484375
0.03816793893129771,-3.3740458015267176,0.007633587786259542,0.0009586811065673828
0.015267175572519083,-3.2748091603053435,0.007633587786259542,0.0010063648223876953
0.04580152671755725,-3.0381679389312977,0.0,0.000988006591796875
0.08396946564885496,-3.1526717557251906,0.007633587786259542,0.0009608268737792969
0.09923664122137404,-3.366412213740458,0.22137404580152673,0.0009398460388183594
0.061068702290076333,-3.435114503816794,0.24427480916030533,0.0009119510650634766
0.11450381679389313,-3.4198473282442747,0.22900763358778625,0.0009050369262695312
0.17557251908396945,-3.427480916030534,-0.007633587786259542,0.0009057521820068359
0.183206106870229,-3.3053435114503817,-0.007633587786259542,0.0009059906005859375
0.11450381679389313,-3.16793893129771,-0.007633587786259542,0.0009129047393798828
0.0916030534351145,-3.1526717557251906,0.08396946564885496,0.0009019374847412109
0.1450381679389313,-3.381679389312977,0.2595419847328244,0.0009415149688720703
0.022900763358778626,-3.435114503816794,0.1297709923664122,0.0009064674377441406
0.1297709923664122,-3.4198473282442747,0.007633587786259542,0.0010395050048828125
0.22900763358778625,-3.427480916030534,-0.08396946564885496,0.0014071464538574219
0.16030534351145037,-3.4427480916030535,-0.06870229007633588,0.0011432170867919922
0.030534351145038167,-3.5267175572519083,0.022900763358778626,0.0009236335754394531
0.0,-3.4122137404580153,0.03816793893129771,0.0009071826934814453
0.0,-3.49618320610687,0.1297709923664122,0.0010116100311279297
0.12213740458015267,-3.633587786259542,0.06870229007633588,0.000993490219116211
0.03816793893129771,-3.5267175572519083,0.05343511450381679,0.0009121894836425781
-0.04580152671755725,-3.618320610687023,0.0916030534351145,0.0009222030639648438
-0.10687022900763359,-3.4885496183206106,0.1450381679389313,0.0010216236114501953
-0.03816793893129771,-3.366412213740458,0.061068702290076333,0.0010585784912109375
0.1450381679389313,-3.3969465648854964,0.06870229007633588,0.0009875297546386719
0.2595419847328244,-3.5114503816793894,0.17557251908396945,0.0009138584136962891
0.12213740458015267,-3.549618320610687,-0.030534351145038167,0.0009062290191650391
-0.07633587786259542,-3.549618320610687,-0.08396946564885496,0.0009031295776367188
0.11450381679389313,-3.4198473282442747,-0.09923664122137404,0.0009067058563232422
0.16793893129770993,-3.5267175572519083,-0.061068702290076333,0.0009026527404785156
0.015267175572519083,-3.7251908396946565,0.0,0.0009026527404785156
-0.04580152671755725,-3.687022900763359,0.030534351145038167,0.0009047985076904297
-0.0916030534351145,-3.618320610687023,0.10687022900763359,0.0009047985076904297
0.061068702290076333,-3.6259541984732824,0.2366412213740458,0.0009021759033203125
0.13740458015267176,-3.450381679389313,-0.022900763358778626,0.0009019374847412109
0.061068702290076333,-3.3587786259541983,-0.1297709923664122,0.0009021759033203125
0.06870229007633588,-3.3587786259541983,-0.19083969465648856,0.0009033679962158203
0.07633587786259542,-3.3053435114503817,-0.24427480916030533,0.0009033679962158203
0.0,-3.213740458015267,0.06870229007633588,0.0009052753448486328
-0.04580152671755725,-3.2061068702290076,0.183206106870229,0.0009016990661621094
-0.1297709923664122,-3.267175572519084,-0.07633587786259542,0.0009021759033203125
0.030534351145038167,-3.2977099236641223,-0.03816793893129771,0.0009024143218994141
0.1984732824427481,-3.480916030534351,0.061068702290076333,0.0009031295776367188
0.2595419847328244,-3.633587786259542,0.10687022900763359,0.0009009838104248047
0.05343511450381679,-3.595419847328244,-0.04580152671755725,0.0009009838104248047
-0.015267175572519083,-3.572519083969466,-0.08396946564885496,0.0009057521820068359
-0.007633587786259542,-3.3893129770992365,-0.22900763358778625,0.0009026527404785156
-0.030534351145038167,-3.366412213740458,-0.15267175572519084,0.0009043216705322266
-0.07633587786259542,-3.5572519083969465,-0.11450381679389313,0.0009033679962158203
0.007633587786259542,-3.6946564885496183,-0.061068702290076333,0.0009033679962158203
0.1297709923664122,-3.5877862595419847,0.07633587786259542,0.0009033679962158203
0.1984732824427481,-3.49618320610687,0.0,0.0009021759033203125
0.16793893129770993,-3.3587786259541983,-0.04580152671755725,0.0009007453918457031
0.22137404580152673,-3.2595419847328246,-0.12213740458015267,0.0009028911590576172
0.19083969465648856,-3.4885496183206106,-0.022900763358778626,0.000904083251953125
0.1984732824427481,-3.7480916030534353,-0.15267175572519084,0.0009038448333740234
0.1984732824427481,-3.6564885496183206,-0.15267175572519084,0.0009031295776367188
0.04580152671755725,-3.3435114503816794,-0.007633587786259542,0.0009028911590576172
0.11450381679389313,-3.122137404580153,0.015267175572519083,0.0009191036224365234
0.09923664122137404,-3.2442748091603053,0.0,0.0009088516235351562
0.16793893129770993,-3.4122137404580153,0.015267175572519083,0.0009024143218994141
0.1297709923664122,-3.4732824427480917,-0.061068702290076333,0.0009038448333740234
0.022900763358778626,-3.381679389312977,0.022900763358778626,0.0009031295776367188
0.10687022900763359,-3.3969465648854964,0.030534351145038167,0.0009036064147949219
0.19083969465648856,-3.4885496183206106,-0.03816793893129771,0.0009026527404785156
0.10687022900763359,-3.5114503816793894,0.04580152671755725,0.0009021759033203125
0.06870229007633588,-3.5572519083969465,0.1450381679389313,0.0009024143218994141
0.09923664122137404,-3.50381679389313,0.04580152671755725,0.0009036064147949219
0.08396946564885496,-3.5419847328244276,-0.06870229007633588,0.0009016990661621094
0.022900763358778626,-3.4580152671755724,0.06870229007633588,0.0009026527404785156
-0.007633587786259542,-3.3740458015267176,0.11450381679389313,0.0009024143218994141
0.10687022900763359,-3.519083969465649,0.17557251908396945,0.0009028911590576172
0.2824427480916031,-3.5419847328244276,0.06870229007633588,0.0009088516235351562
0.09923664122137404,-3.4580152671755724,-0.08396946564885496,0.0009012222290039062
0.0,-3.366412213740458,-0.007633587786259542,0.0009026527404785156
-0.015267175572519083,-3.3435114503816794,0.04580152671755725,0.0009012222290039062
-0.030534351145038167,-3.3969465648854964,0.05343511450381679,0.000904083251953125
0.015267175572519083,-3.3969465648854964,0.08396946564885496,0.0009021759033203125
0.17557251908396945,-3.2748091603053435,-0.015267175572519083,0.0009024143218994141
0.12213740458015267,-3.4122137404580153,-0.03816793893129771,0.0009033679962158203
0.10687022900763359,-3.5801526717557253,-0.1297709923664122,0.0009026527404785156
0.21374045801526717,-3.50381679389313,0.03816793893129771,0.0009036064147949219
0.22900763358778625,-3.5114503816793894,0.03816793893129771,0.0009009838104248047
0.183206106870229,-3.7099236641221376,0.007633587786259542,0.0009019374847412109
0.19083969465648856,-3.6030534351145036,-0.12213740458015267,0.0009019374847412109
0.16793893129770993,-3.4732824427480917,-0.0916030534351145,0.0009036064147949219
0.0916030534351145,-3.3740458015267176,0.007633587786259542,0.0009016990661621094
0.16030534351145037,-3.3740458015267176,0.10687022900763359,0.0009026527404785156
0.21374045801526717,-3.312977099236641,-0.1984732824427481,0.0009019374847412109
0.16030534351145037,-3.2977099236641223,-0.26717557251908397,0.0009028911590576172
0.12213740458015267,-3.33587786259542,-0.26717557251908397,0.0009043216705322266
0.022900763358778626,-3.5572519083969465,-0.061068702290076333,0.0009033679962158203
0.13740458015267176,-3.5572519083969465,0.10687022900763359,0.0009031295776367188
0.13740458015267176,-3.4732824427480917,0.007633587786259542,0.0009026527404785156
-0.03816793893129771,-3.427480916030534,-0.05343511450381679,0.0009028911590576172
-0.07633587786259542,-3.450381679389313,0.007633587786259542,0.0009024143218994141
-0.022900763358778626,-3.480916030534351,-0.007633587786259542,0.0009036064147949219
0.0916030534351145,-3.572519083969466,-0.13740458015267176,0.0009031295776367188
0.030534351145038167,-3.5114503816793894,-0.17557251908396945,0.0009043216705322266
0.061068702290076333,-3.6030534351145036,-0.061068702290076333,0.0009026527404785156
0.183206106870229,-3.5114503816793894,0.0,0.0009024143218994141
0.2595419847328244,-3.351145038167939,-0.1297709923664122,0.0009002685546875
0.08396946564885496,-3.2977099236641223,-0.3282442748091603,0.0009021759033203125
-0.030534351145038167,-3.4427480916030535,-0.2366412213740458,0.0009031295776367188
-0.022900763358778626,-3.572519083969466,0.007633587786259542,0.0009028911590576172
0.12213740458015267,-3.5877862595419847,0.03816793893129771,0.0009028911590576172
0.13740458015267176,-3.366412213740458,-0.04580152671755725,0.0009026527404785156
0.07633587786259542,-3.3435114503816794,-0.04580152671755725,0.0009038448333740234
-0.07633587786259542,-3.404580152671756,0.0,0.0009024143218994141
-0.05343511450381679,-3.3893129770992365,-0.03816793893129771,0.0009005069732666016
0.0,-3.49618320610687,0.015267175572519083,0.0009028911590576172
0.10687022900763359,-3.480916030534351,0.007633587786259542,0.0009009838104248047
0.16793893129770993,-3.2977099236641223,0.0,0.0009026527404785156
0.15267175572519084,-3.4198473282442747,-0.09923664122137404,0.0009000301361083984
0.24427480916030533,-3.4885496183206106,-0.07633587786259542,0.0009021759033203125
0.03816793893129771,-3.49618320610687,-0.03816793893129771,0.0010609626770019531
0.0916030534351145,-3.351145038167939,0.04580152671755725,0.0009136199951171875
0.183206106870229,-3.3053435114503817,0.12213740458015267,0.0009012222290039062
0.1984732824427481,-3.33587786259542,0.16030534351145037,0.0009026527404785156
0.15267175572519084,-3.366412213740458,0.08396946564885496,0.0009019374847412109
0.06870229007633588,-3.5114503816793894,-0.03816793893129771,0.0009036064147949219
-0.10687022900763359,-3.5419847328244276,-0.25190839694656486,0.0009021759033203125
-0.0916030534351145,-3.50381679389313,-0.2748091603053435,0.0009036064147949219
-0.007633587786259542,-3.4732824427480917,-0.1450381679389313,0.0009026527404785156
0.16793893129770993,-3.4427480916030535,-0.16793893129770993,0.0009033679962158203
0.08396946564885496,-3.4656488549618323,0.022900763358778626,0.0009033679962158203
0.030534351145038167,-3.5419847328244276,0.09923664122137404,0.0009014606475830078
0.04580152671755725,-3.450381679389313,0.12213740458015267,0.0009026527404785156
0.09923664122137404,-3.366412213740458,-0.08396946564885496,0.0009021759033203125
0.1984732824427481,-3.33587786259542,-0.04580152671755725,0.0009031295776367188
0.1984732824427481,-3.3435114503816794,-0.12213740458015267,0.0009019374847412109
0.19083969465648856,-3.4427480916030535,-0.26717557251908397,0.0009026527404785156
0.1450381679389313,-3.4122137404580153,-0.2366412213740458,0.0009033679962158203
0.11450381679389313,-3.366412213740458,-0.022900763358778626,0.0009183883666992188
0.15267175572519084,-3.2595419847328246,0.05343511450381679,0.0009038448333740234
0.0,-3.2290076335877864,0.11450381679389313,0.0009026527404785156
-0.24427480916030533,-3.3282442748091605,0.11450381679389313,0.0009005069732666016
-0.25190839694656486,-3.50381679389313,0.12213740458015267,0.0009026527404785156
-0.09923664122137404,-3.6412213740458017,0.12213740458015267,0.0009033679962158203
0.2595419847328244,-3.66412213740458,0.10687022900763359,0.0009016990661621094
0.6793893129770993,-3.6412213740458017,0.0,0.0009036064147949219
0.6259541984732825,-3.5419847328244276,-0.007633587786259542,0.0009005069732666016
0.1297709923664122,-3.5267175572519083,0.0,0.0009033679962158203
-0.366412213740458,-3.4198473282442747,-0.007633587786259542,0.0009000301361083984
-0.366412213740458,-3.2519083969465647,0.08396946564885496,0.0009036064147949219
-0.1984732824427481,-3.2519083969465647,0.09923664122137404,0.0009026527404785156
0.022900763358778626,-3.3587786259541983,-0.04580152671755725,0.0009026527404785156
0.1450381679389313,-3.435114503816794,-0.2824427480916031,0.0009033679962158203
0.10687022900763359,-3.549618320610687,-0.4122137404580153,0.0009024143218994141
0.16030534351145037,-3.4885496183206106,-0.19083969465648856,0.0009028911590576172
0.3282442748091603,-3.6564885496183206,0.06870229007633588,0.0009028911590576172
0.4580152671755725,-3.5572519083969465,0.08396946564885496,0.0009031295776367188
0.3816793893129771,-3.427480916030534,0.12213740458015267,0.0009002685546875
0.20610687022900764,-3.4656488549618323,-0.12213740458015267,0.0009002685546875
-0.06870229007633588,-3.5572519083969465,-0.20610687022900764,0.0009009838104248047
-0.19083969465648856,-3.3893129770992365,-0.09923664122137404,0.0009005069732666016
-0.16793893129770993,-3.2748091603053435,0.16030534351145037,0.0009071826934814453
-0.11450381679389313,-3.2213740458015265,0.0916030534351145,0.0009055137634277344
-0.1297709923664122,-3.4885496183206106,-0.015267175572519083,0.0009052753448486328
0.03816793893129771,-3.49618320610687,-0.20610687022900764,0.0009028911590576172
0.1297709923664122,-3.450381679389313,0.007633587786259542,0.0009036064147949219
0.061068702290076333,-3.3206106870229006,0.030534351145038167,0.0009016990661621094
0.015267175572519083,-3.2061068702290076,0.12213740458015267,0.0009021759033203125
0.06870229007633588,-3.213740458015267,0.0,0.0009016990661621094
0.022900763358778626,-3.3435114503816794,-0.04580152671755725,0.0009012222290039062
-0.030534351145038167,-3.49618320610687,-0.061068702290076333,0.0009019374847412109
0.0916030534351145,-3.572519083969466,0.007633587786259542,0.0009028911590576172
0.06870229007633588,-3.5419847328244276,0.22900763358778625,0.0009021759033203125
-0.11450381679389313,-3.5419847328244276,0.21374045801526717,0.0009021759033203125
-0.13740458015267176,-3.618320610687023,0.1297709923664122,0.0009028911590576172
0.0916030534351145,-3.595419847328244,0.09923664122137404,0.0009558200836181641
0.29770992366412213,-3.282442748091603,-0.015267175572519083,0.0009064674377441406
0.1450381679389313,-3.3435114503816794,-0.04580152671755725,0.0009038448333740234
0.0,-3.5114503816793894,-0.007633587786259542,0.0009038448333740234
-0.030534351145038167,-3.5419847328244276,0.0916030534351145,0.0009012222290039062
0.05343511450381679,-3.5801526717557253,0.06870229007633588,0.0009028911590576172
0.06870229007633588,-3.4656488549618323,0.08396946564885496,0.0009024143218994141
0.11450381679389313,-3.435114503816794,0.08396946564885496,0.0009019374847412109
0.183206106870229,-3.427480916030534,0.030534351145038167,0.0009031295776367188
0.2595419847328244,-3.213740458015267,0.13740458015267176,0.0009019374847412109
0.24427480916030533,-3.0381679389312977,0.015267175572519083,0.0009026527404785156
0.2748091603053435,-3.1603053435114505,0.007633587786259542,0.0009024143218994141
0.2900763358778626,-3.50381679389313,-0.1297709923664122,0.0009033679962158203
0.12213740458015267,-3.6106870229007635,-0.31297709923664124,0.0009019374847412109
0.11450381679389313,-3.732824427480916,-0.2824427480916031,0.0009028911590576172
0.07633587786259542,-3.648854961832061,-0.07633587786259542,0.0009021759033203125
0.015267175572519083,-3.4427480916030535,0.022900763358778626,0.0009033679962158203
0.07633587786259542,-3.435114503816794,0.03816793893129771,0.0009019374847412109
0.24427480916030533,-3.4656488549618323,0.1297709923664122,0.0009021759033203125
0.1984732824427481,-3.6259541984732824,0.21374045801526717,0.0009028911590576172
0.13740458015267176,-3.6946564885496183,-0.05343511450381679,0.0009019374847412109
0.1297709923664122,-3.6030534351145036,-0.09923664122137404,0.0009033679962158203
0.1297709923664122,-3.427480916030534,0.05343511450381679,0.0009021759033203125
0.183206106870229,-3.2748091603053435,0.12213740458015267,0.0009019374847412109
0.1450381679389313,-3.114503816793893,-0.007633587786259542,0.0009016990661621094
0.061068702290076333,-3.145038167938931,-0.05343511450381679,0.000904083251953125
0.03816793893129771,-3.3206106870229006,-0.07633587786259542,0.0009043216705322266
0.03816793893129771,-3.5267175572519083,-0.03816793893129771,0.0009031295776367188
0.007633587786259542,-3.519083969465649,0.07633587786259542,0.0009026527404785156
-0.007633587786259542,-3.5572519083969465,0.03816793893129771,0.0009024143218994141
-0.007633587786259542,-3.6946564885496183,-0.04580152671755725,0.0009028911590576172
0.022900763358778626,-3.5877862595419847,-0.06870229007633588,0.0009028911590576172
0.022900763358778626,-3.2595419847328246,-0.030534351145038167,0.0009026527404785156
0.07633587786259542,-3.2977099236641223,-0.04580152671755725,0.0009028911590576172
-0.08396946564885496,-3.381679389312977,0.10687022900763359,0.0009028911590576172
-0.16793893129770993,-3.427480916030534,-0.06870229007633588,0.0009024143218994141
-0.12213740458015267,-3.381679389312977,-0.09923664122137404,0.0009026527404785156
-0.06870229007633588,-3.2213740458015265,-0.19083969465648856,0.0009026527404785156
0.0916030534351145,-3.4122137404580153,-0.1450381679389313,0.0009181499481201172
0.16030534351145037,-3.7022900763358777,-0.1297709923664122,0.0009038448333740234
0.16793893129770993,-3.717557251908397,0.09923664122137404,0.0009028911590576172
0.11450381679389313,-3.618320610687023,0.183206106870229,0.0009024143218994141
0.04580152671755725,-3.5419847328244276,0.1450381679389313,0.0009021759033203125
-0.007633587786259542,-3.4580152671755724,0.06870229007633588,0.0009028911590576172
-0.04580152671755725,-3.3893129770992365,-0.03816793893129771,0.0009007453918457031
0.007633587786259542,-3.2213740458015265,-0.04580152671755725,0.0010077953338623047
0.11450381679389313,-3.3740458015267176,0.0,0.0009083747863769531
0.15267175572519084,-3.4427480916030535,-0.04580152671755725,0.0009026527404785156
0.09923664122137404,-3.3969465648854964,-0.05343511450381679,0.0009031295776367188
-0.04580152671755725,-3.595419847328244,0.007633587786259542,0.0009031295776367188
-0.05343511450381679,-3.7251908396946565,0.08396946564885496,0.0009028911590576172
0.11450381679389313,-3.5343511450381677,0.0916030534351145,0.0009026527404785156
0.10687022900763359,-3.4427480916030535,-0.030534351145038167,0.0009026527404785156
0.1297709923664122,-3.381679389312977,0.015267175572519083,0.0009024143218994141
0.13740458015267176,-3.435114503816794,0.0916030534351145,0.0009021759033203125
0.10687022900763359,-3.5343511450381677,0.03816793893129771,0.0009019374847412109
0.11450381679389313,-3.5572519083969465,-0.16793893129770993,0.0009057521820068359
0.12213740458015267,-3.5801526717557253,-0.15267175572519084,0.0009007453918457031
0.1297709923664122,-3.3740458015267176,-0.1450381679389313,0.0009024143218994141
0.03816793893129771,-3.4427480916030535,-0.09923664122137404,0.0009024143218994141
0.05343511450381679,-3.5572519083969465,-0.2366412213740458,0.0009028911590576172
0.17557251908396945,-3.4656488549618323,-0.022900763358778626,0.0009014606475830078
0.1984732824427481,-3.450381679389313,0.17557251908396945,0.0009026527404785156
0.07633587786259542,-3.5343511450381677,0.2748091603053435,0.0009021759033203125
0.03816793893129771,-3.4427480916030535,0.12213740458015267,0.0009021759033203125
0.03816793893129771,-3.519083969465649,0.061068702290076333,0.0009028911590576172
-0.08396946564885496,-3.4427480916030535,-0.030534351145038167,0.0009014606475830078
0.007633587786259542,-3.2977099236641223,0.0,0.0009026527404785156
0.11450381679389313,-3.3206106870229006,0.05343511450381679,0.0009009838104248047
0.061068702290076333,-3.366412213740458,0.08396946564885496,0.0009026527404785156
0.0,-3.267175572519084,0.05343511450381679,0.0009007453918457031
0.05343511450381679,-3.3206106870229006,0.0,0.0009000301361083984
-0.007633587786259542,-3.4427480916030535,-0.08396946564885496,0.0008997917175292969
0.0,-3.4656488549618323,-0.1297709923664122,0.0009026527404785156
0.0916030534351145,-3.5572519083969465,-0.15267175572519084,0.0009005069732666016
0.09923664122137404,-3.7022900763358777,-0.11450381679389313,0.0009014606475830078
0.13740458015267176,-3.6106870229007635,-0.061068702290076333,0.0009024143218994141
0.22900763358778625,-3.3587786259541983,-0.015267175572519083,0.0009026527404785156
0.17557251908396945,-3.2900763358778624,-0.03816793893129771,0.0009033679962158203
0.19083969465648856,-3.3740458015267176,-0.007633587786259542,0.0009019374847412109
0.183206106870229,-3.4580152671755724,-0.06870229007633588,0.0009026527404785156
0.11450381679389313,-3.49618320610687,-0.07633587786259542,0.0009014606475830078
-0.12213740458015267,-3.5267175572519083,-0.12213740458015267,0.0009028911590576172
-0.1297709923664122,-3.6106870229007635,-0.12213740458015267,0.0009036064147949219
0.09923664122137404,-3.6412213740458017,0.07633587786259542,0.0009021759033203125
0.183206106870229,-3.480916030534351,0.15267175572519084,0.0009038448333740234
0.13740458015267176,-3.4198473282442747,0.1450381679389313,0.0009026527404785156
0.10687022900763359,-3.633587786259542,-0.061068702290076333,0.0009033679962158203
0.08396946564885496,-3.6717557251908395,-0.007633587786259542,0.0009024143218994141
0.06870229007633588,-3.5267175572519083,0.0,0.0009028911590576172
0.07633587786259542,-3.312977099236641,0.11450381679389313,0.0009007453918457031
0.16030534351145037,-3.213740458015267,0.061068702290076333,0.0009028911590576172
0.12213740458015267,-3.2519083969465647,0.12213740458015267,0.0009014606475830078
0.25190839694656486,-3.4580152671755724,0.09923664122137404,0.0009016990661621094
0.16030534351145037,-3.4122137404580153,-0.04580152671755725,0.0022864341735839844
0.13740458015267176,-3.3740458015267176,-0.03816793893129771,0.0009322166442871094
0.08396946564885496,-3.3587786259541983,-0.06870229007633588,0.0009076595306396484
0.06870229007633588,-3.49618320610687,-0.09923664122137404,0.0009057521820068359
0.04580152671755725,-3.3435114503816794,0.1450381679389313,0.0009055137634277344
0.007633587786259542,-3.351145038167939,0.0,0.0009055137634277344
0.1297709923664122,-3.4198473282442747,0.0,0.0009019374847412109
0.21374045801526717,-3.572519083969466,-0.04580152671755725,0.0009016990661621094
0.1984732824427481,-3.6412213740458017,0.06870229007633588,0.0009043216705322266
0.20610687022900764,-3.6030534351145036,0.04580152671755725,0.000904083251953125
0.05343511450381679,-3.3893129770992365,0.06870229007633588,0.0009033679962158203
0.0,-3.2442748091603053,0.13740458015267176,0.0009038448333740234
0.030534351145038167,-3.33587786259542,0.1297709923664122,0.0009016990661621094
0.16793893129770993,-3.2977099236641223,-0.07633587786259542,0.0009043216705322266
0.20610687022900764,-3.3587786259541983,0.04580152671755725,0.0009028911590576172
0.2900763358778626,-3.5114503816793894,0.22900763358778625,0.0009031295776367188
0.20610687022900764,-3.549618320610687,0.20610687022900764,0.000904083251953125
0.09923664122137404,-3.450381679389313,0.061068702290076333,0.0009024143218994141
0.15267175572519084,-3.519083969465649,-0.030534351145038167,0.0009043216705322266
0.1297709923664122,-3.50381679389313,0.03816793893129771,0.0009026527404785156
0.007633587786259542,-3.519083969465649,0.03816793893129771,0.0009024143218994141
0.03816793893129771,-3.3206106870229006,0.0,0.0009026527404785156
0.04580152671755725,-3.2519083969465647,-0.05343511450381679,0.0009014606475830078
0.0916030534351145,-3.2748091603053435,-0.04580152671755725,0.0009024143218994141
0.19083969465648856,-3.4427480916030535,0.03816793893129771,0.0009026527404785156
0.15267175572519084,-3.564885496183206,0.09923664122137404,0.0009024143218994141
-0.05343511450381679,-3.4885496183206106,-0.05343511450381679,0.0009019374847412109
-0.10687022900763359,-3.366412213740458,-0.12213740458015267,0.0009038448333740234
-0.061068702290076333,-3.4198473282442747,-0.1450381679389313,0.0009031295776367188
0.1450381679389313,-3.5114503816793894,0.12213740458015267,0.0009038448333740234
0.22137404580152673,-3.595419847328244,0.16030534351145037,0.0009033679962158203
0.11450381679389313,-3.5572519083969465,0.3053435114503817,0.0009031295776367188
0.20610687022900764,-3.351145038167939,0.1450381679389313,0.0009021759033203125
0.030534351145038167,-3.2595419847328246,0.05343511450381679,0.0009024143218994141
0.015267175572519083,-3.5419847328244276,0.03816793893129771,0.0009028911590576172
0.06870229007633588,-3.4732824427480917,-0.022900763358778626,0.0009026527404785156
0.17557251908396945,-3.3587786259541983,-0.05343511450381679,0.0009055137634277344
0.19083969465648856,-3.267175572519084,0.061068702290076333,0.0009038448333740234
0.16030534351145037,-3.435114503816794,0.26717557251908397,0.0009031295776367188
0.022900763358778626,-3.5114503816793894,0.31297709923664124,0.0009028911590576172
0.015267175572519083,-3.6259541984732824,0.1984732824427481,0.0009036064147949219
0.015267175572519083,-3.49618320610687,0.030534351145038167,0.0009021759033203125
0.061068702290076333,-3.4580152671755724,0.007633587786259542,0.0009026527404785156
0.1450381679389313,-3.435114503816794,0.05343511450381679,0.0009024143218994141
0.183206106870229,-3.33587786259542,0.16793893129770993,0.0009036064147949219
0.09923664122137404,-3.480916030534351,0.022900763358778626,0.0009021759033203125
0.12213740458015267,-3.4580152671755724,0.07633587786259542,0.0009026527404785156
0.19083969465648856,-3.50381679389313,0.030534351145038167,0.0009024143218994141
0.2824427480916031,-3.351145038167939,0.007633587786259542,0.0009024143218994141
0.09923664122137404,-3.236641221374046,-0.061068702290076333,0.0009031295776367188
-0.015267175572519083,-3.351145038167939,0.16793893129770993,0.0009016990661621094
-0.030534351145038167,-3.50381679389313,0.061068702290076333,0.0009026527404785156
0.015267175572519083,-3.3587786259541983,0.0,0.001064300537109375
0.08396946564885496,-3.3282442748091605,0.030534351145038167,0.0009083747863769531
0.0,-3.3435114503816794,0.022900763358778626,0.0009036064147949219
-0.06870229007633588,-3.427480916030534,-0.15267175572519084,0.0009024143218994141
0.03816793893129771,-3.3587786259541983,-0.1297709923664122,0.0009036064147949219
0.10687022900763359,-3.3206106870229006,0.05343511450381679,0.0009050369262695312
0.04580152671755725,-3.5114503816793894,0.17557251908396945,0.0009026527404785156
-0.04580152671755725,-3.4656488549618323,0.25190839694656486,0.0009021759033203125
-0.0916030534351145,-3.3282442748091605,0.13740458015267176,0.0009031295776367188
0.007633587786259542,-3.2900763358778624,-0.04580152671755725,0.0009045600891113281
0.0,-3.450381679389313,-0.15267175572519084,0.0009038448333740234
-0.03816793893129771,-3.564885496183206,0.0,0.0009009838104248047
0.061068702290076333,-3.5572519083969465,0.022900763358778626,0.0009014606475830078
0.13740458015267176,-3.4732824427480917,0.03816793893129771,0.0009024143218994141
0.22137404580152673,-3.519083969465649,0.1450381679389313,0.0009026527404785156
0.13740458015267176,-3.480916030534351,0.2748091603053435,0.0009012222290039062
0.0,-3.33587786259542,-0.007633587786259542,0.0009021759033203125
-0.11450381679389313,-3.33587786259542,-0.11450381679389313,0.0009009838104248047
-0.10687022900763359,-3.4580152671755724,-0.19083969465648856,0.0009036064147949219
0.03816793893129771,-3.49618320610687,-0.16030534351145037,0.0009038448333740234
0.08396946564885496,-3.4122137404580153,-0.09923664122137404,0.0009045600891113281
0.13740458015267176,-3.381679389312977,0.05343511450381679,0.0009028911590576172
0.13740458015267176,-3.366412213740458,0.10687022900763359,0.0009021759033203125
0.16030534351145037,-3.366412213740458,0.16793893129770993,0.0009043216705322266
0.13740458015267176,-3.351145038167939,-0.08396946564885496,0.0009016990661621094
0.12213740458015267,-3.381679389312977,-0.015267175572519083,0.0009026527404785156
0.15267175572519084,-3.404580152671756,-0.061068702290076333,0.0009031295776367188
0.04580152671755725,-3.4198473282442747,0.0,0.0009224414825439453
-0.015267175572519083,-3.4885496183206106,0.007633587786259542,0.0009021759033203125
0.007633587786259542,-3.480916030534351,-0.0916030534351145,0.0009033679962158203
0.08396946564885496,-3.2748091603053435,-0.04580152671755725,0.0009031295776367188
0.07633587786259542,-3.3282442748091605,0.08396946564885496,0.0009033679962158203
0.10687022900763359,-3.4198473282442747,0.061068702290076333,0.0009033679962158203
0.21374045801526717,-3.5114503816793894,0.08396946564885496,0.0009019374847412109
0.24427480916030533,-3.595419847328244,-0.22137404580152673,0.0009028911590576172
0.11450381679389313,-3.66412213740458,-0.2366412213740458,0.0009038448333740234
0.183206106870229,-3.5114503816793894,-0.030534351145038167,0.0009033679962158203
0.16793893129770993,-3.3587786259541983,-0.007633587786259542,0.0009021759033203125
0.16793893129770993,-3.3740458015267176,-0.183206106870229,0.0009028911590576172
0.20610687022900764,-3.3282442748091605,-0.10687022900763359,0.0009031295776367188
0.32061068702290074,-3.2595419847328246,0.0,0.0009033679962158203
0.183206106870229,-3.427480916030534,0.030534351145038167,0.0009024143218994141
0.03816793893129771,-3.5343511450381677,0.03816793893129771,0.0009019374847412109
0.007633587786259542,-3.564885496183206,-0.015267175572519083,0.0009024143218994141
0.11450381679389313,-3.5419847328244276,-0.03816793893129771,0.0009026527404785156
0.0,-3.33587786259542,-0.05343511450381679,0.0009036064147949219
-0.030534351145038167,-3.3053435114503817,-0.015267175572519083,0.0009005069732666016
-0.12213740458015267,-3.4427480916030535,-0.04580152671755725,0.0009036064147949219
-0.03816793893129771,-3.435114503816794,-0.0916030534351145,0.0009033679962158203
0.08396946564885496,-3.50381679389313,-0.15267175572519084,0.0009026527404785156
0.1984732824427481,-3.519083969465649,0.007633587786259542,0.0009033679962158203
0.1450381679389313,-3.50381679389313,-0.030534351145038167,0.0009019374847412109
0.0916030534351145,-3.5877862595419847,-0.015267175572519083,0.0009026527404785156
0.06870229007633588,-3.5572519083969465,0.0,0.0009033679962158203
0.10687022900763359,-3.5114503816793894,-0.08396946564885496,0.0009016990661621094
0.09923664122137404,-3.3969465648854964,-0.015267175572519083,0.0009026527404785156
0.007633587786259542,-3.4198473282442747,0.17557251908396945,0.0009031295776367188
0.0,-3.267175572519084,0.15267175572519084,0.0009031295776367188
0.06870229007633588,-3.213740458015267,0.15267175572519084,0.0009009838104248047
-0.03816793893129771,-3.4580152671755724,0.08396946564885496,0.0009009838104248047
0.0,-3.7938931297709924,0.07633587786259542,0.0009026527404785156
0.08396946564885496,-3.854961832061069,-0.04580152671755725,0.0009005069732666016
0.0916030534351145,-3.6106870229007635,-0.05343511450381679,0.0009021759033203125
0.04580152671755725,-3.450381679389313,-0.07633587786259542,0.0009038448333740234
0.12213740458015267,-3.3969465648854964,0.007633587786259542,0.0009019374847412109
0.0916030534351145,-3.717557251908397,0.1297709923664122,0.0009026527404785156
0.015267175572519083,-3.6946564885496183,0.11450381679389313,0.0009016990661621094
0.07633587786259542,-3.5572519083969465,-0.007633587786259542,0.0009033679962158203
0.10687022900763359,-3.4885496183206106,-0.09923664122137404,0.0009024143218994141
0.06870229007633588,-3.267175572519084,-0.061068702290076333,0.0009028911590576172
0.16793893129770993,-3.3587786259541983,-0.08396946564885496,0.0009026527404785156
0.366412213740458,-3.4885496183206106,-0.08396946564885496,0.0009026527404785156
0.22900763358778625,-3.404580152671756,-0.06870229007633588,0.0009031295776367188
0.0,-3.450381679389313,0.007633587786259542,0.0009012222290039062
-0.04580152671755725,-3.564885496183206,-0.022900763358778626,0.0009009838104248047
0.061068702290076333,-3.50381679389313,-0.015267175572519083,0.0009028911590576172
0.19083969465648856,-3.564885496183206,-0.04580152671755725,0.0009031295776367188
-0.015267175572519083,-3.6259541984732824,0.030534351145038167,0.0009026527404785156
-0.13740458015267176,-3.633587786259542,-0.022900763358778626,0.0009052753448486328
0.0,-3.49618320610687,0.05343511450381679,0.0009033679962158203
0.20610687022900764,-3.4198473282442747,0.07633587786259542,0.0009007453918457031
0.2748091603053435,-3.3893129770992365,0.007633587786259542,0.0009024143218994141
0.22137404580152673,-3.4122137404580153,-0.29770992366412213,0.0009028911590576172
0.06870229007633588,-3.404580152671756,-0.21374045801526717,0.0009033679962158203
0.06870229007633588,-3.450381679389313,-0.030534351145038167,0.0009033679962158203
0.04580152671755725,-3.404580152671756,0.06870229007633588,0.000904083251953125
0.06870229007633588,-3.381679389312977,0.08396946564885496,0.0009014606475830078
0.10687022900763359,-3.450381679389313,-0.030534351145038167,0.0009021759033203125
-0.030534351145038167,-3.687022900763359,-0.10687022900763359,0.0009024143218994141
0.015267175572519083,-3.633587786259542,-0.05343511450381679,0.000904083251953125
0.08396946564885496,-3.5877862595419847,-0.0916030534351145,0.0009026527404785156
0.21374045801526717,-3.50381679389313,0.030534351145038167,0.0009028911590576172
0.08396946564885496,-3.381679389312977,0.22900763358778625,0.0009028911590576172
-0.09923664122137404,-3.2290076335877864,0.06870229007633588,0.0009026527404785156
0.007633587786259542,-3.3206106870229006,0.022900763358778626,0.0009038448333740234
0.061068702290076333,-3.366412213740458,-0.09923664122137404,0.0009019374847412109
0.06870229007633588,-3.4427480916030535,-0.015267175572519083,0.0009021759033203125
0.030534351145038167,-3.435114503816794,0.16030534351145037,0.0009031295776367188
-0.04580152671755725,-3.435114503816794,0.04580152671755725,0.0009028911590576172
-0.11450381679389313,-3.4580152671755724,-0.015267175572519083,0.0009036064147949219
-0.030534351145038167,-3.4732824427480917,0.1297709923664122,0.0009043216705322266
0.16030534351145037,-3.5114503816793894,0.1450381679389313,0.0009937286376953125
0.16793893129770993,-3.3969465648854964,0.07633587786259542,0.0009093284606933594
0.19083969465648856,-3.2900763358778624,0.04580152671755725,0.0009026527404785156
0.2748091603053435,-3.351145038167939,0.07633587786259542,0.0009033679962158203
0.16030534351145037,-3.4580152671755724,-0.015267175572519083,0.0009028911590576172
0.0916030534351145,-3.4656488549618323,0.07633587786259542,0.0009031295776367188
0.0,-3.4198473282442747,0.022900763358778626,0.0009036064147949219
0.0916030534351145,-3.3435114503816794,0.015267175572519083,0.0009007453918457031
0.16793893129770993,-3.4122137404580153,0.21374045801526717,0.0009024143218994141
0.17557251908396945,-3.5801526717557253,0.26717557251908397,0.0009026527404785156
0.13740458015267176,-3.50381679389313,0.030534351145038167,0.0009028911590576172
0.16030534351145037,-3.2519083969465647,-0.16793893129770993,0.0009021759033203125
0.05343511450381679,-3.198473282442748,-0.1297709923664122,0.0009031295776367188
0.07633587786259542,-3.4122137404580153,-0.07633587786259542,0.0009031295776367188
0.030534351145038167,-3.450381679389313,0.1984732824427481,0.0009028911590576172
0.10687022900763359,-3.49618320610687,0.1450381679389313,0.0009028911590576172
0.13740458015267176,-3.3587786259541983,0.13740458015267176,0.0009016990661621094
0.2900763358778626,-3.450381679389313,-0.12213740458015267,0.0009019374847412109
0.2595419847328244,-3.480916030534351,0.022900763358778626,0.0009031295776367188
-0.03816793893129771,-3.3893129770992365,0.13740458015267176,0.0009031295776367188
-0.17557251908396945,-3.3282442748091605,0.0,0.0009024143218994141
0.03816793893129771,-3.435114503816794,-0.11450381679389313,0.0009016990661621094
0.2366412213740458,-3.4885496183206106,0.06870229007633588,0.0009028911590576172
0.31297709923664124,-3.4885496183206106,0.1297709923664122,0.0009176731109619141
0.16030534351145037,-3.351145038167939,-0.022900763358778626,0.0009036064147949219
0.03816793893129771,-3.404580152671756,-0.08396946564885496,0.0009028911590576172
-0.11450381679389313,-3.4885496183206106,-0.1450381679389313,0.0009026527404785156
-0.29770992366412213,-3.5572519083969465,-0.12213740458015267,0.0009031295776367188
-0.3053435114503817,-3.3740458015267176,-0.015267175572519083,0.0009043216705322266
0.030534351145038167,-3.236641221374046,-0.007633587786259542,0.0009028911590576172
0.22137404580152673,-3.3893129770992365,0.061068702290076333,0.0009038448333740234
0.31297709923664124,-3.519083969465649,0.007633587786259542,0.0009028911590576172
0.1984732824427481,-3.5267175572519083,-0.03816793893129771,0.0009031295776367188
0.015267175572519083,-3.66412213740458,-0.030534351145038167,0.0009026527404785156
0.030534351145038167,-3.5572519083969465,0.007633587786259542,0.0009031295776367188
-0.04580152671755725,-3.312977099236641,-0.1297709923664122,0.0009028911590576172
-0.15267175572519084,-3.2442748091603053,-0.07633587786259542,0.0009031295776367188
-0.09923664122137404,-3.404580152671756,-0.06870229007633588,0.0009067058563232422
-0.061068702290076333,-3.4198473282442747,-0.05343511450381679,0.0009021759033203125
0.04580152671755725,-3.3893129770992365,0.030534351145038167,0.0009026527404785156
0.10687022900763359,-3.4732824427480917,0.04580152671755725,0.0009028911590576172
0.03816793893129771,-3.381679389312977,0.08396946564885496,0.0009031295776367188
-0.022900763358778626,-3.4198473282442747,0.015267175572519083,0.0009019374847412109
-0.061068702290076333,-3.519083969465649,0.007633587786259542,0.0009028911590576172
0.061068702290076333,-3.49618320610687,-0.007633587786259542,0.0009031295776367188
0.17557251908396945,-3.366412213740458,-0.03816793893129771,0.0009031295776367188
-0.022900763358778626,-3.4580152671755724,-0.04580152671755725,0.0009024143218994141
-0.10687022900763359,-3.3969465648854964,-0.030534351145038167,0.0009009838104248047
-0.04580152671755725,-3.351145038167939,-0.04580152671755725,0.0009012222290039062
-0.022900763358778626,-3.366412213740458,0.13740458015267176,0.0009009838104248047
0.015267175572519083,-3.351145038167939,0.15267175572519084,0.0009036064147949219
0.2595419847328244,-3.3587786259541983,0.15267175572519084,0.0009031295776367188
0.21374045801526717,-3.5572519083969465,-0.13740458015267176,0.0009026527404785156
0.09923664122137404,-3.5877862595419847,-0.22137404580152673,0.0009031295776367188
0.17557251908396945,-3.5877862595419847,-0.2824427480916031,0.0009033679962158203
0.22900763358778625,-3.427480916030534,-0.19083969465648856,0.0009021759033203125
0.05343511450381679,-3.3740458015267176,-0.05343511450381679,0.0009028911590576172
-0.061068702290076333,-3.236641221374046,0.015267175572519083,0.0009026527404785156
-0.16793893129770993,-3.2900763358778624,-0.03816793893129771,0.0009028911590576172
-0.22900763358778625,-3.5801526717557253,0.007633587786259542,0.0009047985076904297
-0.12213740458015267,-3.6412213740458017,0.022900763358778626,0.0009021759033203125
0.16030534351145037,-3.49618320610687,0.061068702290076333,0.0009024143218994141
0.22137404580152673,-3.6106870229007635,0.061068702290076333,0.0009026527404785156
0.06870229007633588,-3.6259541984732824,0.061068702290076333,0.0009031295776367188
0.03816793893129771,-3.4427480916030535,0.13740458015267176,0.0009019374847412109
0.13740458015267176,-3.2900763358778624,0.13740458015267176,0.0009028911590576172
0.24427480916030533,-3.198473282442748,0.007633587786259542,0.0009021759033203125
0.26717557251908397,-3.1755725190839694,0.06870229007633588,0.0009024143218994141
0.1297709923664122,-3.3969465648854964,-0.06870229007633588,0.0009031295776367188
-0.022900763358778626,-3.427480916030534,-0.08396946564885496,0.0009019374847412109
-0.030534351145038167,-3.2977099236641223,-0.015267175572519083,0.0009026527404785156
0.05343511450381679,-3.351145038167939,-0.03816793893129771,0.0009031295776367188
0.20610687022900764,-3.480916030534351,0.10687022900763359,0.0009036064147949219
0.31297709923664124,-3.3969465648854964,0.11450381679389313,0.0009021759033203125
0.24427480916030533,-3.427480916030534,0.16030534351145037,0.0009026527404785156
0.05343511450381679,-3.404580152671756,-0.03816793893129771,0.0009021759033203125
-0.13740458015267176,-3.3587786259541983,-0.04580152671755725,0.0009028911590576172
-0.08396946564885496,-3.2748091603053435,-0.13740458015267176,0.0009033679962158203
0.0,-3.4427480916030535,-0.1450381679389313,0.0009031295776367188
0.03816793893129771,-3.4656488549618323,-0.007633587786259542,0.0009012222290039062
-0.030534351145038167,-3.4656488549618323,0.0,0.0009028911590576172
-0.030534351145038167,-3.618320610687023,-0.05343511450381679,0.0009014606475830078
-0.007633587786259542,-3.5267175572519083,-0.022900763358778626,0.0009021759033203125
0.007633587786259542,-3.404580152671756,-0.03816793893129771,0.0009026527404785156
0.0916030534351145,-3.3740458015267176,-0.09923664122137404,0.0009024143218994141
0.1297709923664122,-3.381679389312977,-0.10687022900763359,0.0009033679962158203
0.12213740458015267,-3.2442748091603053,-0.07633587786259542,0.0009021759033203125
0.09923664122137404,-3.16793893129771,-0.13740458015267176,0.0009026527404785156
0.03816793893129771,-3.2595419847328246,-0.08396946564885496,0.0009026527404785156
-0.030534351145038167,-3.435114503816794,-0.13740458015267176,0.0009026527404785156
-0.030534351145038167,-3.6106870229007635,-0.061068702290076333,0.0009036064147949219
0.15267175572519084,-3.5801526717557253,0.022900763358778626,0.0009021759033203125
0.21374045801526717,-3.3893129770992365,0.03816793893129771,0.0009026527404785156
0.03816793893129771,-3.3893129770992365,0.07633587786259542,0.0009031295776367188
0.10687022900763359,-3.4885496183206106,0.007633587786259542,0.0009028911590576172
0.10687022900763359,-3.366412213740458,0.015267175572519083,0.0009028911590576172
0.08396946564885496,-3.33587786259542,-0.030534351145038167,0.0009026527404785156
0.007633587786259542,-3.4885496183206106,0.007633587786259542,0.0009026527404785156
-0.015267175572519083,-3.7022900763358777,0.16030534351145037,0.0009016990661621094
-0.03816793893129771,-3.435114503816794,0.15267175572519084,0.0010030269622802734
0.030534351145038167,-3.381679389312977,0.030534351145038167,0.0009067058563232422
0.007633587786259542,-3.4198473282442747,0.08396946564885496,0.0009031295776367188
0.12213740458015267,-3.564885496183206,0.0,0.0009036064147949219
0.13740458015267176,-3.6030534351145036,0.007633587786259542,0.0009019374847412109
0.04580152671755725,-3.3893129770992365,0.04580152671755725,0.0009019374847412109
0.22900763358778625,-3.3053435114503817,0.13740458015267176,0.0009024143218994141
0.22900763358778625,-3.427480916030534,0.0,0.0009021759033203125
0.09923664122137404,-3.564885496183206,0.030534351145038167,0.0009012222290039062
0.007633587786259542,-3.5801526717557253,0.08396946564885496,0.0009021759033203125
-0.06870229007633588,-3.4656488549618323,0.030534351145038167,0.0009026527404785156
0.015267175572519083,-3.3282442748091605,-0.05343511450381679,0.0009026527404785156
0.007633587786259542,-3.3206106870229006,0.015267175572519083,0.0009026527404785156
0.05343511450381679,-3.4198473282442747,-0.06870229007633588,0.0009031295776367188
0.1984732824427481,-3.4580152671755724,-0.15267175572519084,0.0009021759033203125
0.25190839694656486,-3.6564885496183206,-0.0916030534351145,0.0009024143218994141
0.2748091603053435,-3.5877862595419847,0.007633587786259542,0.0009028911590576172
0.22900763358778625,-3.435114503816794,0.061068702290076333,0.0009038448333740234
0.16793893129770993,-3.4427480916030535,0.08396946564885496,0.0009021759033203125
0.17557251908396945,-3.3282442748091605,0.11450381679389313,0.0009024143218994141
0.07633587786259542,-3.2748091603053435,0.04580152671755725,0.0009024143218994141
-0.04580152671755725,-3.4656488549618323,0.061068702290076333,0.0009164810180664062
0.007633587786259542,-3.6717557251908395,0.08396946564885496,0.0009043216705322266
0.061068702290076333,-3.5419847328244276,0.08396946564885496,0.0009031295776367188
0.21374045801526717,-3.49618320610687,-0.030534351145038167,0.0009024143218994141
0.20610687022900764,-3.5877862595419847,-0.030534351145038167,0.0009038448333740234
0.1297709923664122,-3.519083969465649,-0.05343511450381679,0.0009036064147949219
0.030534351145038167,-3.435114503816794,-0.08396946564885496,0.0009019374847412109
0.022900763358778626,-3.450381679389313,0.022900763358778626,0.0009024143218994141
-0.015267175572519083,-3.404580152671756,0.15267175572519084,0.0009019374847412109
-0.061068702290076333,-3.381679389312977,-0.13740458015267176,0.0009036064147949219
-0.061068702290076333,-3.366412213740458,-0.09923664122137404,0.0009028911590576172
0.08396946564885496,-3.2977099236641223,-0.030534351145038167,0.0009028911590576172
0.03816793893129771,-3.427480916030534,0.09923664122137404,0.0009028911590576172
0.05343511450381679,-3.572519083969466,-0.08396946564885496,0.0009021759033203125
0.06870229007633588,-3.4122137404580153,-0.16793893129770993,0.0009033679962158203
0.12213740458015267,-3.2977099236641223,0.007633587786259542,0.0009024143218994141
0.12213740458015267,-3.312977099236641,0.12213740458015267,0.0009024143218994141
0.0916030534351145,-3.5114503816793894,-0.007633587786259542,0.0009026527404785156
0.04580152671755725,-3.5343511450381677,-0.12213740458015267,0.0009036064147949219
0.007633587786259542,-3.4198473282442747,-0.11450381679389313,0.0009021759033203125
0.04580152671755725,-3.3282442748091605,-0.10687022900763359,0.0009047985076904297
0.07633587786259542,-3.2290076335877864,-0.06870229007633588,0.0009028911590576172
0.007633587786259542,-3.3206106870229006,-0.007633587786259542,0.0009026527404785156
0.09923664122137404,-3.3740458015267176,-0.04580152671755725,0.0009036064147949219
0.1450381679389313,-3.435114503816794,0.015267175572519083,0.0009012222290039062
0.15267175572519084,-3.519083969465649,0.015267175572519083,0.0009021759033203125
0.09923664122137404,-3.6259541984732824,0.007633587786259542,0.0009024143218994141
0.022900763358778626,-3.633587786259542,0.07633587786259542,0.0009033679962158203
0.09923664122137404,-3.6717557251908395,0.0,0.0009016990661621094
0.16793893129770993,-3.5267175572519083,-0.12213740458015267,0.0009009838104248047
0.04580152671755725,-3.3740458015267176,-0.11450381679389313,0.0009026527404785156
-0.04580152671755725,-3.4732824427480917,-0.13740458015267176,0.0009033679962158203
-0.07633587786259542,-3.49618320610687,-0.11450381679389313,0.0009024143218994141
0.061068702290076333,-3.4580152671755724,0.06870229007633588,0.0009026527404785156
0.12213740458015267,-3.4580152671755724,0.16793893129770993,0.0009024143218994141
0.022900763358778626,-3.427480916030534,0.1450381679389313,0.0009026527404785156
0.03816793893129771,-3.6259541984732824,0.1297709923664122,0.0009024143218994141
0.0,-3.763358778625954,0.0916030534351145,0.0009016990661621094
-0.030534351145038167,-3.6030534351145036,-0.08396946564885496,0.0008997917175292969
0.06870229007633588,-3.3587786259541983,-0.05343511450381679,0.0009031295776367188
0.04580152671755725,-3.114503816793893,-0.030534351145038167,0.0009038448333740234
0.12213740458015267,-3.2595419847328246,0.022900763358778626,0.0009021759033203125
0.16030534351145037,-3.427480916030534,-0.015267175572519083,0.0009024143218994141
0.07633587786259542,-3.366412213740458,0.0,0.0009026527404785156
0.0,-3.50381679389313,-0.06870229007633588,0.0009007453918457031
0.06870229007633588,-3.595419847328244,-0.03816793893129771,0.0009009838104248047
-0.007633587786259542,-3.5114503816793894,-0.0916030534351145,0.0009024143218994141
-0.015267175572519083,-3.351145038167939,-0.12213740458015267,0.0009031295776367188
-0.03816793893129771,-3.3740458015267176,-0.22900763358778625,0.0009033679962158203
0.08396946564885496,-3.49618320610687,-0.10687022900763359,0.0009036064147949219
0.16030534351145037,-3.5877862595419847,-0.030534351145038167,0.0009019374847412109
0.09923664122137404,-3.6030534351145036,0.0,0.0009028911590576172
0.0916030534351145,-3.6793893129770994,0.08396946564885496,0.0009002685546875
0.022900763358778626,-3.6946564885496183,0.16793893129770993,0.0009148120880126953
0.04580152671755725,-3.5572519083969465,0.1984732824427481,0.0009036064147949219
0.022900763358778626,-3.4122137404580153,0.0,0.0009028911590576172
0.0916030534351145,-3.312977099236641,-0.04580152671755725,0.0009009838104248047
0.16030534351145037,-3.549618320610687,-0.13740458015267176,0.0009024143218994141
0.05343511450381679,-3.5267175572519083,0.05343511450381679,0.0009038448333740234
0.022900763358778626,-3.3969465648854964,0.16793893129770993,0.0009016990661621094
0.03816793893129771,-3.4656488549618323,0.3282442748091603,0.0009019374847412109
0.0,-3.572519083969466,0.22900763358778625,0.0009026527404785156
-0.015267175572519083,-3.5572519083969465,0.17557251908396945,0.0009012222290039062
0.03816793893129771,-3.50381679389313,0.04580152671755725,0.0009024143218994141
0.0916030534351145,-3.3893129770992365,0.07633587786259542,0.0009019374847412109
0.1450381679389313,-3.4198473282442747,0.2366412213740458,0.0009024143218994141
0.13740458015267176,-3.4122137404580153,0.08396946564885496,0.0009019374847412109
-0.03816793893129771,-3.3282442748091605,-0.16793893129770993,0.0009026527404785156
-0.05343511450381679,-3.3740458015267176,-0.1297709923664122,0.0009014606475830078
0.007633587786259542,-3.366412213740458,-0.022900763358778626,0.0009012222290039062
0.022900763358778626,-3.404580152671756,-0.015267175572519083,0.0009012222290039062
0.21374045801526717,-3.6106870229007635,0.0916030534351145,0.0009109973907470703
0.3282442748091603,-3.5572519083969465,0.007633587786259542,0.0009105205535888672
0.16793893129770993,-3.2977099236641223,-0.007633587786259542,0.0009057521820068359
0.11450381679389313,-3.2595419847328246,0.13740458015267176,0.0009026527404785156
0.22900763358778625,-3.404580152671756,0.12213740458015267,0.0009021759033203125
0.2824427480916031,-3.549618320610687,0.09923664122137404,0.0009033679962158203
0.09923664122137404,-3.4580152671755724,0.04580152671755725,0.0009012222290039062
-0.015267175572519083,-3.4122137404580153,-0.03816793893129771,0.0009019374847412109
0.007633587786259542,-3.450381679389313,0.17557251908396945,0.0010182857513427734
-0.04580152671755725,-3.572519083969466,0.21374045801526717,0.0009098052978515625
0.09923664122137404,-3.5877862595419847,0.12213740458015267,0.0009033679962158203
0.19083969465648856,-3.572519083969466,0.04580152671755725,0.0009028911590576172
0.13740458015267176,-3.5877862595419847,0.13740458015267176,0.0009024143218994141
0.09923664122137404,-3.618320610687023,0.183206106870229,0.0009026527404785156
0.13740458015267176,-3.427480916030534,0.26717557251908397,0.0009016990661621094
0.1297709923664122,-3.3053435114503817,0.16793893129770993,0.0009024143218994141
0.16793893129770993,-3.3893129770992365,0.1297709923664122,0.0009026527404785156
0.17557251908396945,-3.427480916030534,-0.07633587786259542,0.0009024143218994141
0.25190839694656486,-3.213740458015267,-0.030534351145038167,0.0009033679962158203
0.2595419847328244,-3.3282442748091605,0.03816793893129771,0.0009024143218994141
0.13740458015267176,-3.5572519083969465,0.12213740458015267,0.0009026527404785156
-0.015267175572519083,-3.6793893129770994,0.07633587786259542,0.0009019374847412109
0.06870229007633588,-3.5343511450381677,-0.022900763358778626,0.0009033679962158203
0.16793893129770993,-3.3969465648854964,-0.030534351145038167,0.0009021759033203125
0.21374045801526717,-3.381679389312977,-0.11450381679389313,0.0009031295776367188
0.32061068702290074,-3.366412213740458,-0.05343511450381679,0.0009031295776367188
0.3053435114503817,-3.3893129770992365,0.007633587786259542,0.0009222030639648438
0.13740458015267176,-3.366412213740458,0.1984732824427481,0.0009031295776367188
0.04580152671755725,-3.267175572519084,0.022900763358778626,0.0009026527404785156
0.05343511450381679,-3.4198473282442747,0.061068702290076333,0.0009021759033203125
0.1297709923664122,-3.3282442748091605,0.1297709923664122,0.0009028911590576172
0.061068702290076333,-3.3053435114503817,0.17557251908396945,0.0009026527404785156
0.03816793893129771,-3.404580152671756,0.11450381679389313,0.0009016990661621094
0.07633587786259542,-3.49618320610687,0.17557251908396945,0.0009026527404785156
0.16030534351145037,-3.5419847328244276,0.061068702290076333,0.0009024143218994141
0.16793893129770993,-3.4885496183206106,0.16030534351145037,0.0009071826934814453
0.16793893129770993,-3.404580152671756,0.06870229007633588,0.0009021759033203125
0.183206106870229,-3.4580152671755724,-0.007633587786259542,0.0009047985076904297
0.1450381679389313,-3.5114503816793894,0.05343511450381679,0.0009033679962158203
0.16030534351145037,-3.366412213740458,0.20610687022900764,0.0009019374847412109
0.08396946564885496,-3.50381679389313,0.16030534351145037,0.0009036064147949219
0.0916030534351145,-3.5343511450381677,0.08396946564885496,0.0009007453918457031
0.07633587786259542,-3.5801526717557253,-0.08396946564885496,0.0009019374847412109
0.07633587786259542,-3.4656488549618323,-0.061068702290076333,0.0009026527404785156
0.05343511450381679,-3.480916030534351,-0.015267175572519083,0.0009033679962158203
0.0916030534351145,-3.450381679389313,-0.030534351145038167,0.0009021759033203125
0.22900763358778625,-3.427480916030534,-0.05343511450381679,0.0009026527404785156
0.32061068702290074,-3.2213740458015265,-0.007633587786259542,0.0009026527404785156
0.19083969465648856,-3.282442748091603,-0.0916030534351145,0.0009019374847412109
-0.030534351145038167,-3.3587786259541983,0.0,0.0009033679962158203
0.015267175572519083,-3.4580152671755724,0.0,0.0009026527404785156
0.1450381679389313,-3.480916030534351,-0.015267175572519083,0.0009012222290039062
0.25190839694656486,-3.427480916030534,0.16793893129770993,0.0009028911590576172
0.0916030534351145,-3.5114503816793894,0.21374045801526717,0.0009031295776367188
0.030534351145038167,-3.4732824427480917,0.15267175572519084,0.0009019374847412109
0.03816793893129771,-3.5114503816793894,0.20610687022900764,0.0009026527404785156
0.0916030534351145,-3.5572519083969465,0.12213740458015267,0.0009021759033203125
0.007633587786259542,-3.4198473282442747,-0.061068702290076333,0.0009028911590576172
0.05343511450381679,-3.381679389312977,0.007633587786259542,0.0009024143218994141
0.17557251908396945,-3.3282442748091605,-0.022900763358778626,0.0009024143218994141
0.1297709923664122,-3.381679389312977,0.0,0.0009047985076904297
0.007633587786259542,-3.33587786259542,-0.10687022900763359,0.0008993148803710938
-0.061068702290076333,-3.3969465648854964,-0.03816793893129771,0.0009047985076904297
0.030534351145038167,-3.5267175572519083,-0.015267175572519083,0.0009009838104248047
0.06870229007633588,-3.519083969465649,0.16030534351145037,0.0009026527404785156
0.061068702290076333,-3.618320610687023,0.08396946564885496,0.0009024143218994141
0.16030534351145037,-3.5419847328244276,0.21374045801526717,0.0009036064147949219
0.13740458015267176,-3.3053435114503817,0.030534351145038167,0.0009016990661621094
0.061068702290076333,-3.3435114503816794,0.007633587786259542,0.0009026527404785156
-0.08396946564885496,-3.3053435114503817,0.03816793893129771,0.0009033679962158203
0.03816793893129771,-3.3587786259541983,0.03816793893129771,0.0009028911590576172
0.24427480916030533,-3.49618320610687,0.13740458015267176,0.0009031295776367188
0.2366412213740458,-3.618320610687023,0.17557251908396945,0.0009021759033203125
0.1450381679389313,-3.5801526717557253,0.08396946564885496,0.0009031295776367188
0.08396946564885496,-3.4198473282442747,0.015267175572519083,0.0009021759033203125
0.12213740458015267,-3.236641221374046,0.0,0.0009038448333740234
0.022900763358778626,-3.427480916030534,-0.0916030534351145,0.0008985996246337891
0.015267175572519083,-3.7022900763358777,-0.08396946564885496,0.0009028911590576172
0.04580152671755725,-3.6259541984732824,-0.022900763358778626,0.0009026527404785156
0.22137404580152673,-3.450381679389313,-0.0916030534351145,0.0009036064147949219
0.29770992366412213,-3.114503816793893,0.05343511450381679,0.0009024143218994141
0.19083969465648856,-3.0610687022900764,0.0916030534351145,0.0009024143218994141
0.05343511450381679,-3.2519083969465647,-0.03816793893129771,0.0009024143218994141
-0.03816793893129771,-3.549618320610687,-0.08396946564885496,0.0009021759033203125
-0.061068702290076333,-3.6412213740458017,-0.17557251908396945,0.0009288787841796875
-0.1450381679389313,-3.49618320610687,0.03816793893129771,0.0009741783142089844
0.007633587786259542,-3.381679389312977,-0.030534351145038167,0.0009949207305908203
0.06870229007633588,-3.4198473282442747,-0.16030534351145037,0.0010132789611816406
0.06870229007633588,-3.435114503816794,-0.07633587786259542,0.0009958744049072266
0.03816793893129771,-3.4732824427480917,-0.015267175572519083,0.0009737014770507812
0.0916030534351145,-3.312977099236641,0.03816793893129771,0.0009930133819580078
0.015267175572519083,-3.312977099236641,-0.07633587786259542,0.0009894371032714844
0.10687022900763359,-3.381679389312977,0.03816793893129771,0.000982046127319336
0.15267175572519084,-3.564885496183206,0.0,0.0009429454803466797
0.0916030534351145,-3.572519083969466,0.030534351145038167,0.0009105205535888672
0.015267175572519083,-3.4427480916030535,0.015267175572519083,0.0009191036224365234
0.061068702290076333,-3.49618320610687,0.0,0.0009436607360839844
0.061068702290076333,-3.66412213740458,-0.030534351145038167,0.0009794235229492188
0.06870229007633588,-3.7251908396946565,-0.04580152671755725,0.000926971435546875
-0.007633587786259542,-3.5343511450381677,-0.16793893129770993,0.0009107589721679688
0.0,-3.3587786259541983,-0.16793893129770993,0.0009431838989257812
0.09923664122137404,-3.4732824427480917,0.007633587786259542,0.0009403228759765625
0.16793893129770993,-3.687022900763359,-0.08396946564885496,0.0009744167327880859
0.08396946564885496,-3.6412213740458017,0.05343511450381679,0.0010161399841308594
0.15267175572519084,-3.5114503816793894,0.1450381679389313,0.0009560585021972656
0.13740458015267176,-3.3435114503816794,0.16793893129770993,0.0009670257568359375
0.20610687022900764,-3.3206106870229006,0.04580152671755725,0.0009617805480957031
0.04580152671755725,-3.3587786259541983,-0.061068702290076333,0.0009582042694091797
-0.07633587786259542,-3.4427480916030535,0.0,0.0012359619140625
0.03816793893129771,-3.49618320610687,-0.022900763358778626,0.0009996891021728516
-0.015267175572519083,-3.3740458015267176,0.0,0.0010039806365966797
-0.04580152671755725,-3.2213740458015265,0.015267175572519083,0.0009865760803222656
0.1297709923664122,-3.3206106870229006,-0.10687022900763359,0.0010919570922851562
0.17557251908396945,-3.435114503816794,-0.04580152671755725,0.000978708267211914
0.17557251908396945,-3.5267175572519083,0.022900763358778626,0.0009152889251708984
0.1297709923664122,-3.5877862595419847,0.0916030534351145,0.0009071826934814453
0.061068702290076333,-3.4885496183206106,0.0,0.0009050369262695312
0.10687022900763359,-3.3740458015267176,0.05343511450381679,0.0009107589721679688
0.183206106870229,-3.4732824427480917,0.007633587786259542,0.0009038448333740234
0.21374045801526717,-3.49618320610687,-0.03816793893129771,0.0009045600891113281
0.03816793893129771,-3.4580152671755724,-0.05343511450381679,0.0009038448333740234
-0.022900763358778626,-3.5572519083969465,0.13740458015267176,0.0009043216705322266
-0.04580152671755725,-3.49618320610687,0.10687022900763359,0.000904083251953125
-0.007633587786259542,-3.450381679389313,0.1450381679389313,0.000904083251953125
0.061068702290076333,-3.3740458015267176,0.11450381679389313,0.0009036064147949219
0.09923664122137404,-3.381679389312977,-0.030534351145038167,0.0009047985076904297
0.04580152671755725,-3.381679389312977,-0.022900763358778626,0.0009028911590576172
0.015267175572519083,-3.351145038167939,0.2595419847328244,0.0009028911590576172
-0.007633587786259542,-3.3969465648854964,0.17557251908396945,0.0009031295776367188
0.0,-3.427480916030534,-0.03816793893129771,0.0009033679962158203
-0.07633587786259542,-3.404580152671756,-0.08396946564885496,0.0009021759033203125
0.03816793893129771,-3.3969465648854964,0.022900763358778626,0.0009033679962158203
0.06870229007633588,-3.519083969465649,0.007633587786259542,0.0009033679962158203
0.16793893129770993,-3.480916030534351,-0.13740458015267176,0.0009031295776367188
0.2748091603053435,-3.3969465648854964,-0.030534351145038167,0.0009102821350097656
0.10687022900763359,-3.4656488549618323,0.03816793893129771,0.0009028911590576172
0.022900763358778626,-3.381679389312977,0.11450381679389313,0.0009033679962158203
0.07633587786259542,-3.2290076335877864,-0.05343511450381679,0.0009024143218994141
0.1450381679389313,-3.1755725190839694,0.007633587786259542,0.0009026527404785156
0.19083969465648856,-3.2595419847328246,0.030534351145038167,0.0009033679962158203
0.13740458015267176,-3.3740458015267176,-0.030534351145038167,0.0009021759033203125
0.12213740458015267,-3.4427480916030535,-0.030534351145038167,0.0009038448333740234
0.10687022900763359,-3.5801526717557253,0.0,0.0009028911590576172
0.10687022900763359,-3.4885496183206106,-0.030534351145038167,0.0009024143218994141
0.15267175572519084,-3.3282442748091605,0.030534351145038167,0.0009024143218994141
0.0916030534351145,-3.198473282442748,-0.05343511450381679,0.0009024143218994141
0.06870229007633588,-3.351145038167939,0.030534351145038167,0.0009031295776367188
-0.015267175572519083,-3.5343511450381677,-0.061068702290076333,0.0009026527404785156
0.11450381679389313,-3.49618320610687,0.03816793893129771,0.0009036064147949219
0.1297709923664122,-3.366412213740458,0.12213740458015267,0.0009033679962158203
0.05343511450381679,-3.3053435114503817,0.03816793893129771,0.0009026527404785156
0.10687022900763359,-3.282442748091603,-0.015267175572519083,0.0009026527404785156
0.015267175572519083,-3.2290076335877864,0.030534351145038167,0.0009038448333740234
0.030534351145038167,-3.2595419847328246,0.022900763358778626,0.0009021759033203125
0.16793893129770993,-3.3587786259541983,0.08396946564885496,0.0009024143218994141
0.16030534351145037,-3.3053435114503817,0.04580152671755725,0.0009031295776367188
0.04580152671755725,-3.2213740458015265,0.09923664122137404,0.0009033679962158203
0.0,-3.312977099236641,-0.19083969465648856,0.0009019374847412109
0.07633587786259542,-3.5343511450381677,-0.22137404580152673,0.0009007453918457031
0.22900763358778625,-3.6946564885496183,-0.16793893129770993,0.0009028911590576172
0.2595419847328244,-3.519083969465649,-0.12213740458015267,0.0009033679962158203
0.22900763358778625,-3.366412213740458,0.030534351145038167,0.0009138584136962891
0.13740458015267176,-3.312977099236641,0.06870229007633588,0.0009095668792724609
0.09923664122137404,-3.2748091603053435,0.007633587786259542,0.0009024143218994141
0.1297709923664122,-3.49618320610687,0.022900763358778626,0.0009031295776367188
0.15267175572519084,-3.5419847328244276,0.08396946564885496,0.0009033679962158203
0.09923664122137404,-3.4732824427480917,0.04580152671755725,0.0009019374847412109
0.022900763358778626,-3.236641221374046,-0.19083969465648856,0.0009021759033203125
0.030534351145038167,-3.33587786259542,-0.1984732824427481,0.0009031295776367188
0.07633587786259542,-3.4122137404580153,-0.022900763358778626,0.000949859619140625
0.09923664122137404,-3.5801526717557253,-0.030534351145038167,0.0009095668792724609
0.07633587786259542,-3.450381679389313,0.007633587786259542,0.0009055137634277344
0.07633587786259542,-3.4122137404580153,-0.007633587786259542,0.0009036064147949219
0.061068702290076333,-3.4122137404580153,0.04580152671755725,0.0009038448333740234
0.15267175572519084,-3.50381679389313,-0.022900763358778626,0.0009026527404785156
0.06870229007633588,-3.4427480916030535,0.11450381679389313,0.0009033679962158203
0.09923664122137404,-3.366412213740458,0.05343511450381679,0.0009026527404785156
-0.022900763358778626,-3.366412213740458,0.07633587786259542,0.0009019374847412109
-0.09923664122137404,-3.3893129770992365,0.03816793893129771,0.0009043216705322266
-0.022900763358778626,-3.282442748091603,-0.030534351145038167,0.0009014606475830078
0.11450381679389313,-3.236641221374046,0.13740458015267176,0.0009028911590576172
0.10687022900763359,-3.3893129770992365,0.20610687022900764,0.0009021759033203125
0.13740458015267176,-3.435114503816794,0.07633587786259542,0.0009024143218994141
0.17557251908396945,-3.50381679389313,-0.09923664122137404,0.0009026527404785156
0.09923664122137404,-3.633587786259542,-0.1450381679389313,0.0009021759033203125
0.11450381679389313,-3.519083969465649,-0.21374045801526717,0.0009031295776367188
0.1297709923664122,-3.427480916030534,-0.13740458015267176,0.0009045600891113281
0.1297709923664122,-3.435114503816794,0.07633587786259542,0.0009038448333740234
0.11450381679389313,-3.6030534351145036,0.07633587786259542,0.0009014606475830078
0.04580152671755725,-3.66412213740458,0.007633587786259542,0.0009033679962158203
0.16793893129770993,-3.6946564885496183,-0.08396946564885496,0.0009024143218994141
0.15267175572519084,-3.549618320610687,-0.10687022900763359,0.0009031295776367188
0.183206106870229,-3.5572519083969465,-0.07633587786259542,0.0009171962738037109
0.15267175572519084,-3.5419847328244276,-0.16030534351145037,0.0009033679962158203
0.22900763358778625,-3.5343511450381677,0.0916030534351145,0.0009026527404785156
0.06870229007633588,-3.3969465648854964,0.11450381679389313,0.0009028911590576172
0.05343511450381679,-3.183206106870229,0.10687022900763359,0.0009031295776367188
0.09923664122137404,-3.16793893129771,-0.015267175572519083,0.0009016990661621094
0.20610687022900764,-3.427480916030534,0.03816793893129771,0.0009028911590576172
0.12213740458015267,-3.549618320610687,0.06870229007633588,0.0009012222290039062
0.022900763358778626,-3.5267175572519083,0.07633587786259542,0.0009026527404785156
0.0,-3.4122137404580153,0.0,0.0009028911590576172
-0.04580152671755725,-3.366412213740458,0.10687022900763359,0.0008995532989501953
-0.07633587786259542,-3.381679389312977,0.19083969465648856,0.0009028911590576172
-0.04580152671755725,-3.3435114503816794,0.0,0.0009026527404785156
0.022900763358778626,-3.381679389312977,-0.20610687022900764,0.0009021759033203125
0.061068702290076333,-3.5343511450381677,-0.08396946564885496,0.0009024143218994141
0.022900763358778626,-3.5419847328244276,0.08396946564885496,0.0009024143218994141
0.05343511450381679,-3.595419847328244,0.12213740458015267,0.0009024143218994141
0.061068702290076333,-3.3893129770992365,-0.08396946564885496,0.0010581016540527344
0.06870229007633588,-3.198473282442748,-0.05343511450381679,0.0009083747863769531
0.32061068702290074,-3.198473282442748,0.022900763358778626,0.0009045600891113281
0.3053435114503817,-3.2442748091603053,0.1450381679389313,0.0009038448333740234
0.07633587786259542,-3.4427480916030535,0.17557251908396945,0.000904083251953125
-0.07633587786259542,-3.572519083969466,-0.007633587786259542,0.0009026527404785156
-0.030534351145038167,-3.549618320610687,0.015267175572519083,0.0009028911590576172
0.022900763358778626,-3.4656488549618323,0.05343511450381679,0.0009036064147949219
0.10687022900763359,-3.236641221374046,0.31297709923664124,0.0009033679962158203
0.09923664122137404,-3.2595419847328246,0.3282442748091603,0.0009036064147949219
0.1297709923664122,-3.404580152671756,0.22137404580152673,0.0009024143218994141
-0.04580152671755725,-3.4580152671755724,-0.03816793893129771,0.0009024143218994141
-0.08396946564885496,-3.480916030534351,-0.183206106870229,0.0009028911590576172
-0.07633587786259542,-3.427480916030534,-0.19083969465648856,0.0009031295776367188
-0.09923664122137404,-3.312977099236641,-0.11450381679389313,0.0009019374847412109
-0.0916030534351145,-3.3587786259541983,-0.183206106870229,0.0009031295776367188
0.030534351145038167,-3.312977099236641,-0.13740458015267176,0.0009021759033203125
0.03816793893129771,-3.3206106870229006,-0.08396946564885496,0.0009031295776367188
0.007633587786259542,-3.2977099236641223,-0.022900763358778626,0.0009033679962158203
0.1297709923664122,-3.3206106870229006,-0.1297709923664122,0.0009021759033203125
0.061068702290076333,-3.3740458015267176,-0.030534351145038167,0.0009024143218994141
0.0,-3.4198473282442747,0.022900763358778626,0.0009026527404785156
-0.015267175572519083,-3.5267175572519083,-0.015267175572519083,0.0009043216705322266
-0.030534351145038167,-3.4656488549618323,0.06870229007633588,0.0009028911590576172
0.11450381679389313,-3.351145038167939,-0.007633587786259542,0.0009031295776367188
0.12213740458015267,-3.5801526717557253,0.007633587786259542,0.0009036064147949219
0.007633587786259542,-3.6412213740458017,-0.12213740458015267,0.00091552734375
-0.04580152671755725,-3.5343511450381677,-0.12213740458015267,0.0009036064147949219
-0.007633587786259542,-3.3893129770992365,-0.10687022900763359,0.0009036064147949219
0.030534351145038167,-3.282442748091603,0.0916030534351145,0.0009028911590576172
0.12213740458015267,-3.3740458015267176,0.08396946564885496,0.0009028911590576172
0.21374045801526717,-3.3282442748091605,0.05343511450381679,0.0009031295776367188
0.05343511450381679,-3.3053435114503817,-0.030534351145038167,0.0009019374847412109
-0.05343511450381679,-3.2977099236641223,-0.09923664122137404,0.0009031295776367188
0.015267175572519083,-3.213740458015267,-0.09923664122137404,0.0009031295776367188
0.030534351145038167,-3.312977099236641,0.09923664122137404,0.0009050369262695312
0.03816793893129771,-3.450381679389313,0.09923664122137404,0.0009014606475830078
0.007633587786259542,-3.3893129770992365,0.21374045801526717,0.0009021759033203125
0.13740458015267176,-3.3740458015267176,0.061068702290076333,0.0009026527404785156
0.2824427480916031,-3.5343511450381677,0.09923664122137404,0.0009024143218994141
0.1450381679389313,-3.6030534351145036,-0.061068702290076333,0.0009033679962158203
0.11450381679389313,-3.4656488549618323,0.03816793893129771,0.0009021759033203125
0.15267175572519084,-3.2595419847328246,-0.06870229007633588,0.0009026527404785156
0.24427480916030533,-3.2442748091603053,-0.1450381679389313,0.0009026527404785156
0.16030534351145037,-3.3206106870229006,0.007633587786259542,0.0009033679962158203
0.015267175572519083,-3.50381679389313,-0.10687022900763359,0.0009009838104248047
0.13740458015267176,-3.7022900763358777,0.0,0.0009014606475830078
0.15267175572519084,-3.50381679389313,0.015267175572519083,0.0008995532989501953
0.0916030534351145,-3.2061068702290076,0.022900763358778626,0.0009002685546875
0.15267175572519084,-3.236641221374046,0.030534351145038167,0.0009026527404785156
0.13740458015267176,-3.5343511450381677,0.06870229007633588,0.0009031295776367188
-0.04580152671755725,-3.648854961832061,0.04580152671755725,0.0009024143218994141
0.015267175572519083,-3.49618320610687,0.07633587786259542,0.0009019374847412109
0.12213740458015267,-3.1068702290076335,-0.061068702290076333,0.0009033679962158203
0.1450381679389313,-3.114503816793893,0.022900763358778626,0.0009024143218994141
0.17557251908396945,-3.3587786259541983,-0.007633587786259542,0.0009026527404785156
0.2366412213740458,-3.519083969465649,0.022900763358778626,0.0009026527404785156
0.31297709923664124,-3.5267175572519083,0.12213740458015267,0.0009031295776367188
0.2824427480916031,-3.50381679389313,0.09923664122137404,0.0009012222290039062
0.17557251908396945,-3.564885496183206,-0.007633587786259542,0.0009021759033203125
0.07633587786259542,-3.2977099236641223,-0.0916030534351145,0.0009021759033203125
0.022900763358778626,-3.213740458015267,-0.20610687022900764,0.0009026527404785156
0.061068702290076333,-3.236641221374046,-0.16030534351145037,0.0009028911590576172
0.13740458015267176,-3.427480916030534,-0.0916030534351145,0.0009016990661621094
-0.03816793893129771,-3.4656488549618323,-0.1297709923664122,0.0009021759033203125
-0.022900763358778626,-3.572519083969466,-0.29770992366412213,0.0009026527404785156
0.09923664122137404,-3.564885496183206,-0.06870229007633588,0.0009036064147949219
0.22137404580152673,-3.6106870229007635,-0.10687022900763359,0.0009014606475830078
0.2595419847328244,-3.5114503816793894,0.07633587786259542,0.0009026527404785156
0.13740458015267176,-3.49618320610687,0.16793893129770993,0.0009019374847412109
0.10687022900763359,-3.4580152671755724,0.22900763358778625,0.0009021759033203125
0.183206106870229,-3.4427480916030535,0.11450381679389313,0.0009021759033203125
0.05343511450381679,-3.50381679389313,-0.09923664122137404,0.0009019374847412109
0.022900763358778626,-3.351145038167939,0.10687022900763359,0.0009024143218994141
0.05343511450381679,-3.4732824427480917,0.37404580152671757,0.0009019374847412109
0.03816793893129771,-3.5419847328244276,0.19083969465648856,0.0009021759033203125
0.030534351145038167,-3.3587786259541983,0.061068702290076333,0.0009024143218994141
0.007633587786259542,-3.3893129770992365,-0.022900763358778626,0.0009033679962158203
0.15267175572519084,-3.549618320610687,-0.03816793893129771,0.0009033679962158203
0.04580152671755725,-3.49618320610687,0.022900763358778626,0.0009026527404785156
-0.05343511450381679,-3.4885496183206106,0.16030534351145037,0.0009021759033203125
-0.06870229007633588,-3.5267175572519083,0.32061068702290074,0.0009026527404785156
-0.09923664122137404,-3.49618320610687,0.2595419847328244,0.0009024143218994141
0.0,-3.519083969465649,0.0916030534351145,0.0009019374847412109
0.09923664122137404,-3.564885496183206,0.061068702290076333,0.0009009838104248047
0.22900763358778625,-3.427480916030534,0.04580152671755725,0.0009016990661621094
0.2366412213740458,-3.2977099236641223,-0.12213740458015267,0.0009021759033203125
0.16793893129770993,-3.282442748091603,-0.183206106870229,0.0009024143218994141
0.2366412213740458,-3.404580152671756,-0.22137404580152673,0.0009031295776367188
0.3053435114503817,-3.6030534351145036,-0.06870229007633588,0.0009024143218994141
0.1297709923664122,-3.6564885496183206,-0.03816793893129771,0.0009024143218994141
-0.015267175572519083,-3.4122137404580153,0.1450381679389313,0.0009031295776367188
-0.030534351145038167,-3.267175572519084,0.16030534351145037,0.0009033679962158203
0.04580152671755725,-3.312977099236641,0.12213740458015267,0.0009038448333740234
0.061068702290076333,-3.4427480916030535,0.11450381679389313,0.0009007453918457031
0.06870229007633588,-3.519083969465649,0.12213740458015267,0.0009019374847412109
-0.1297709923664122,-3.351145038167939,-0.007633587786259542,0.0009016990661621094
-0.11450381679389313,-3.3893129770992365,0.015267175572519083,0.0009031295776367188
-0.04580152671755725,-3.3435114503816794,-0.03816793893129771,0.0009019374847412109
0.007633587786259542,-3.435114503816794,-0.05343511450381679,0.0010056495666503906
0.1297709923664122,-3.4732824427480917,-0.04580152671755725,0.0009067058563232422
0.1450381679389313,-3.3587786259541983,0.061068702290076333,0.0009038448333740234
0.12213740458015267,-3.351145038167939,0.022900763358778626,0.0009014606475830078
0.09923664122137404,-3.5114503816793894,0.04580152671755725,0.0009021759033203125
0.09923664122137404,-3.450381679389313,0.05343511450381679,0.0009019374847412109
0.0916030534351145,-3.404580152671756,0.06870229007633588,0.0009014606475830078
-0.007633587786259542,-3.351145038167939,0.15267175572519084,0.0009024143218994141
-0.030534351145038167,-3.3587786259541983,0.09923664122137404,0.0009021759033203125
0.13740458015267176,-3.3587786259541983,0.0,0.0009026527404785156
0.22137404580152673,-3.4427480916030535,-0.1297709923664122,0.0009007453918457031
0.09923664122137404,-3.3206106870229006,-0.10687022900763359,0.0009031295776367188
0.16793893129770993,-3.3435114503816794,0.007633587786259542,0.0009026527404785156
0.21374045801526717,-3.404580152671756,0.1297709923664122,0.0009026527404785156
0.07633587786259542,-3.450381679389313,0.04580152671755725,0.0009019374847412109
0.09923664122137404,-3.450381679389313,0.16793893129770993,0.0009012222290039062
0.15267175572519084,-3.435114503816794,0.15267175572519084,0.0009026527404785156
0.061068702290076333,-3.381679389312977,0.22900763358778625,0.0009021759033203125
0.03816793893129771,-3.381679389312977,0.07633587786259542,0.0009019374847412109
0.04580152671755725,-3.2748091603053435,0.007633587786259542,0.0009012222290039062
0.16793893129770993,-3.480916030534351,-0.030534351145038167,0.0009028911590576172
0.19083969465648856,-3.648854961832061,-0.061068702290076333,0.0009047985076904297
0.21374045801526717,-3.4656488549618323,-0.06870229007633588,0.0009033679962158203
0.0916030534351145,-3.16793893129771,-0.183206106870229,0.0009033679962158203
-0.015267175572519083,-3.282442748091603,-0.16030534351145037,0.0009024143218994141
-0.0916030534351145,-3.549618320610687,-0.07633587786259542,0.0009455680847167969
0.030534351145038167,-3.6030534351145036,-0.0916030534351145,0.0009033679962158203
0.1450381679389313,-3.4885496183206106,-0.1297709923664122,0.0009031295776367188
0.03816793893129771,-3.366412213740458,-0.03816793893129771,0.0009031295776367188
0.03816793893129771,-3.1908396946564888,0.03816793893129771,0.0009033679962158203
0.030534351145038167,-3.122137404580153,0.13740458015267176,0.0009009838104248047
0.11450381679389313,-3.183206106870229,0.007633587786259542,0.0009021759033203125
0.15267175572519084,-3.3969465648854964,0.007633587786259542,0.0009028911590576172
0.12213740458015267,-3.549618320610687,0.007633587786259542,0.0009033679962158203
0.15267175572519084,-3.5801526717557253,0.22137404580152673,0.0009012222290039062
0.15267175572519084,-3.5572519083969465,0.2595419847328244,0.0009019374847412109
0.2366412213740458,-3.381679389312977,0.2366412213740458,0.0009016990661621094
0.2824427480916031,-3.381679389312977,0.03816793893129771,0.0009009838104248047
0.15267175572519084,-3.404580152671756,0.0,0.0009019374847412109
0.0916030534351145,-3.4427480916030535,0.030534351145038167,0.0008993148803710938
0.07633587786259542,-3.4580152671755724,0.11450381679389313,0.0009012222290039062
0.17557251908396945,-3.351145038167939,0.030534351145038167,0.0009157657623291016
0.17557251908396945,-3.267175572519084,0.030534351145038167,0.00090789794921875
0.061068702290076333,-3.2290076335877864,-0.007633587786259542,0.0009033679962158203
0.007633587786259542,-3.5572519083969465,0.022900763358778626,0.0009038448333740234
0.08396946564885496,-3.480916030534351,-0.030534351145038167,0.000904083251953125
0.1450381679389313,-3.2595419847328246,0.11450381679389313,0.0009028911590576172
0.16030534351145037,-3.282442748091603,0.007633587786259542,0.0009036064147949219
0.03816793893129771,-3.4580152671755724,0.007633587786259542,0.0009016990661621094
0.061068702290076333,-3.5267175572519083,0.03816793893129771,0.0009024143218994141
0.09923664122137404,-3.5343511450381677,-0.015267175572519083,0.0009026527404785156
0.11450381679389313,-3.633587786259542,-0.10687022900763359,0.0009033679962158203
0.15267175572519084,-3.5877862595419847,0.07633587786259542,0.0009028911590576172
0.007633587786259542,-3.3969465648854964,0.13740458015267176,0.0009028911590576172
0.0,-3.4198473282442747,0.030534351145038167,0.0009033679962158203
-0.04580152671755725,-3.4885496183206106,-0.06870229007633588,0.0009014606475830078
0.0,-3.595419847328244,-0.15267175572519084,0.0009026527404785156
0.030534351145038167,-3.6030534351145036,-0.0916030534351145,0.0009007453918457031
0.030534351145038167,-3.5572519083969465,0.05343511450381679,0.0009021759033203125
-0.03816793893129771,-3.435114503816794,0.06870229007633588,0.0009024143218994141
-0.11450381679389313,-3.4656488549618323,-0.12213740458015267,0.0009031295776367188
-0.1450381679389313,-3.3206106870229006,0.0,0.0009024143218994141
0.05343511450381679,-3.3206106870229006,-0.03816793893129771,0.0008997917175292969
0.25190839694656486,-3.3893129770992365,0.007633587786259542,0.0009021759033203125
0.22900763358778625,-3.4427480916030535,0.007633587786259542,0.0009028911590576172
0.030534351145038167,-3.5343511450381677,0.007633587786259542,0.0009026527404785156
-0.04580152671755725,-3.50381679389313,-0.007633587786259542,0.0009241104125976562
0.10687022900763359,-3.427480916030534,0.015267175572519083,0.0009369850158691406
0.13740458015267176,-3.4198473282442747,-0.22137404580152673,0.0009114742279052734
-0.022900763358778626,-3.5801526717557253,-0.16793893129770993,0.0009067058563232422
0.022900763358778626,-3.7404580152671754,-0.08396946564885496,0.0009033679962158203
0.13740458015267176,-3.5801526717557253,-0.007633587786259542,0.0009031295776367188
0.37404580152671757,-3.4198473282442747,0.05343511450381679,0.0009031295776367188
0.40458015267175573,-3.4427480916030535,0.007633587786259542,0.0009031295776367188
0.20610687022900764,-3.49618320610687,-0.04580152671755725,0.0009024143218994141
0.13740458015267176,-3.4885496183206106,-0.04580152671755725,0.0009026527404785156
0.24427480916030533,-3.4656488549618323,-0.10687022900763359,0.0009024143218994141
0.16793893129770993,-3.4656488549618323,-0.183206106870229,0.000904083251953125
0.06870229007633588,-3.4580152671755724,-0.1450381679389313,0.0009019374847412109
0.1450381679389313,-3.404580152671756,-0.07633587786259542,0.0009028911590576172
0.08396946564885496,-3.50381679389313,-0.03816793893129771,0.0009024143218994141
0.061068702290076333,-3.5267175572519083,-0.06870229007633588,0.0009031295776367188
0.05343511450381679,-3.5572519083969465,-0.16030534351145037,0.0009038448333740234
0.09923664122137404,-3.4580152671755724,-0.13740458015267176,0.0009026527404785156
0.08396946564885496,-3.450381679389313,-0.03816793893129771,0.0009028911590576172
0.12213740458015267,-3.381679389312977,0.030534351145038167,0.0009016990661621094
0.08396946564885496,-3.4122137404580153,0.07633587786259542,0.0009031295776367188
0.07633587786259542,-3.427480916030534,-0.15267175572519084,0.0009019374847412109
0.03816793893129771,-3.4427480916030535,-0.3282442748091603,0.0009024143218994141
0.007633587786259542,-3.450381679389313,-0.19083969465648856,0.0009024143218994141
0.1297709923664122,-3.3206106870229006,0.13740458015267176,0.0009019374847412109
0.25190839694656486,-3.2977099236641223,0.09923664122137404,0.0009026527404785156
0.20610687022900764,-3.450381679389313,0.04580152671755725,0.0009014606475830078
0.05343511450381679,-3.618320610687023,-0.09923664122137404,0.0009024143218994141
0.030534351145038167,-3.6030534351145036,-0.17557251908396945,0.0009028911590576172
0.015267175572519083,-3.427480916030534,-0.022900763358778626,0.0009033679962158203
0.022900763358778626,-3.2900763358778624,0.0916030534351145,0.0009028911590576172
0.1450381679389313,-3.3893129770992365,0.1984732824427481,0.0009024143218994141
0.13740458015267176,-3.3282442748091605,0.1297709923664122,0.0009021759033203125
0.030534351145038167,-3.2595419847328246,-0.09923664122137404,0.0009026527404785156
0.07633587786259542,-3.2900763358778624,-0.022900763358778626,0.001035928726196289
0.22900763358778625,-3.3893129770992365,0.03816793893129771,0.0009074211120605469
0.1984732824427481,-3.2061068702290076,0.07633587786259542,0.000904083251953125
0.007633587786259542,-3.3435114503816794,0.007633587786259542,0.0009033679962158203
0.0,-3.427480916030534,-0.1450381679389313,0.0009045600891113281
0.030534351145038167,-3.450381679389313,-0.03816793893129771,0.0009014606475830078
0.1297709923664122,-3.3740458015267176,0.1297709923664122,0.0009031295776367188
0.11450381679389313,-3.366412213740458,0.08396946564885496,0.0009026527404785156
-0.03816793893129771,-3.6259541984732824,0.05343511450381679,0.0009024143218994141
0.007633587786259542,-3.6412213740458017,-0.030534351145038167,0.0009028911590576172
0.13740458015267176,-3.4580152671755724,-0.06870229007633588,0.0009026527404785156
0.25190839694656486,-3.3893129770992365,0.09923664122137404,0.0009026527404785156
0.022900763358778626,-3.3969465648854964,0.03816793893129771,0.0009024143218994141
-0.030534351145038167,-3.4656488549618323,-0.06870229007633588,0.0009026527404785156
0.11450381679389313,-3.5267175572519083,-0.1450381679389313,0.0009026527404785156
0.21374045801526717,-3.6106870229007635,-0.030534351145038167,0.0009021759033203125
0.21374045801526717,-3.4656488549618323,-0.007633587786259542,0.0009024143218994141
0.10687022900763359,-3.381679389312977,-0.05343511450381679,0.0009036064147949219
0.16793893129770993,-3.3206106870229006,-0.06870229007633588,0.0009019374847412109
0.19083969465648856,-3.2748091603053435,-0.12213740458015267,0.0009026527404785156
0.12213740458015267,-3.404580152671756,-0.16030534351145037,0.0009026527404785156
0.13740458015267176,-3.5572519083969465,0.007633587786259542,0.0009031295776367188
0.11450381679389313,-3.5877862595419847,0.0916030534351145,0.0009026527404785156
0.015267175572519083,-3.519083969465649,0.16030534351145037,0.0009019374847412109
-0.030534351145038167,-3.366412213740458,-0.015267175572519083,0.0009021759033203125
0.015267175572519083,-3.3206106870229006,0.007633587786259542,0.0009036064147949219
0.1450381679389313,-3.381679389312977,-0.04580152671755725,0.0009028911590576172
0.13740458015267176,-3.5343511450381677,-0.03816793893129771,0.0009014606475830078
0.20610687022900764,-3.6259541984732824,0.022900763358778626,0.0009024143218994141
0.21374045801526717,-3.5801526717557253,-0.022900763358778626,0.0009026527404785156
0.20610687022900764,-3.5419847328244276,-0.11450381679389313,0.0009024143218994141
0.15267175572519084,-3.435114503816794,-0.16030534351145037,0.0009021759033203125
0.1297709923664122,-3.3969465648854964,-0.16030534351145037,0.0009028911590576172
0.09923664122137404,-3.427480916030534,-0.061068702290076333,0.0009028911590576172
0.007633587786259542,-3.3206106870229006,0.10687022900763359,0.0009026527404785156
-0.030534351145038167,-3.3435114503816794,0.13740458015267176,0.0009026527404785156
0.015267175572519083,-3.4198473282442747,0.1297709923664122,0.0009019374847412109
0.030534351145038167,-3.3969465648854964,0.022900763358778626,0.0009019374847412109
0.061068702290076333,-3.312977099236641,-0.007633587786259542,0.0009021759033203125
0.04580152671755725,-3.3435114503816794,-0.12213740458015267,0.0009031295776367188
-0.022900763358778626,-3.3893129770992365,-0.08396946564885496,0.0009024143218994141
0.08396946564885496,-3.435114503816794,0.0,0.0009038448333740234
0.10687022900763359,-3.480916030534351,0.11450381679389313,0.0009007453918457031
0.04580152671755725,-3.5419847328244276,0.19083969465648856,0.0009033679962158203
0.05343511450381679,-3.5267175572519083,0.25190839694656486,0.0009016990661621094
0.07633587786259542,-3.6259541984732824,0.10687022900763359,0.0009021759033203125
0.07633587786259542,-3.4198473282442747,-0.03816793893129771,0.0009024143218994141
0.15267175572519084,-3.3740458015267176,-0.007633587786259542,0.0009026527404785156
0.1297709923664122,-3.572519083969466,-0.16793893129770993,0.0009033679962158203
0.25190839694656486,-3.618320610687023,-0.13740458015267176,0.0009019374847412109
0.19083969465648856,-3.4732824427480917,-0.1297709923664122,0.0009024143218994141
0.007633587786259542,-3.33587786259542,0.11450381679389313,0.0009028911590576172
-0.030534351145038167,-3.366412213740458,0.2824427480916031,0.0009021759033203125
-0.022900763358778626,-3.366412213740458,0.16793893129770993,0.0009026527404785156
0.11450381679389313,-3.450381679389313,-0.07633587786259542,0.0009026527404785156
0.08396946564885496,-3.549618320610687,-0.007633587786259542,0.0009024143218994141
0.007633587786259542,-3.427480916030534,0.03816793893129771,0.0009021759033203125
0.07633587786259542,-3.4427480916030535,0.16030534351145037,0.0009024143218994141
0.16030534351145037,-3.4656488549618323,0.007633587786259542,0.0009012222290039062
0.16793893129770993,-3.480916030534351,0.030534351145038167,0.0009021759033203125
0.16030534351145037,-3.4427480916030535,0.061068702290076333,0.0009019374847412109
0.15267175572519084,-3.450381679389313,0.17557251908396945,0.0009028911590576172
0.0,-3.4885496183206106,0.13740458015267176,0.0009028911590576172
-0.007633587786259542,-3.564885496183206,0.09923664122137404,0.0009007453918457031
0.061068702290076333,-3.312977099236641,0.061068702290076333,0.0009026527404785156
0.15267175572519084,-3.3206106870229006,0.007633587786259542,0.0009026527404785156
0.13740458015267176,-3.5114503816793894,-0.015267175572519083,0.0009028911590576172
0.030534351145038167,-3.519083969465649,0.03816793893129771,0.0009014606475830078
0.0,-3.4122137404580153,0.0,0.0009019374847412109
0.06870229007633588,-3.282442748091603,0.12213740458015267,0.0008985996246337891
0.19083969465648856,-3.236641221374046,0.0,0.0009028911590576172
0.20610687022900764,-3.2061068702290076,0.04580152671755725,0.0008997917175292969
0.06870229007633588,-3.3435114503816794,0.04580152671755725,0.0009021759033203125
-0.03816793893129771,-3.3969465648854964,0.007633587786259542,0.0009024143218994141
0.061068702290076333,-3.4122137404580153,-0.022900763358778626,0.0009031295776367188
0.17557251908396945,-3.3969465648854964,0.03816793893129771,0.0009028911590576172
0.183206106870229,-3.3206106870229006,0.0916030534351145,0.0009019374847412109
0.06870229007633588,-3.3282442748091605,-0.05343511450381679,0.0009019374847412109
0.1450381679389313,-3.3740458015267176,0.030534351145038167,0.0009024143218994141
0.24427480916030533,-3.4122137404580153,0.09923664122137404,0.0009028911590576172
0.22137404580152673,-3.427480916030534,0.05343511450381679,0.0009016990661621094
0.0916030534351145,-3.427480916030534,0.030534351145038167,0.0009012222290039062
0.030534351145038167,-3.5343511450381677,0.015267175572519083,0.0009016990661621094
-0.022900763358778626,-3.3282442748091605,-0.007633587786259542,0.0009026527404785156
0.015267175572519083,-3.4885496183206106,0.007633587786259542,0.0009024143218994141
0.007633587786259542,-3.519083969465649,-0.05343511450381679,0.0009021759033203125
0.09923664122137404,-3.2442748091603053,0.08396946564885496,0.0009031295776367188
0.19083969465648856,-3.2290076335877864,0.17557251908396945,0.0009016990661621094
0.15267175572519084,-3.3740458015267176,0.19083969465648856,0.0009033679962158203
0.11450381679389313,-3.450381679389313,0.19083969465648856,0.0009012222290039062
0.08396946564885496,-3.33587786259542,0.22900763358778625,0.0009019374847412109
0.03816793893129771,-3.3206106870229006,0.061068702290076333,0.0009016990661621094
0.2366412213740458,-3.572519083969466,0.0,0.0009028911590576172
0.1984732824427481,-3.6106870229007635,-0.030534351145038167,0.0009007453918457031
0.05343511450381679,-3.381679389312977,-0.007633587786259542,0.0009028911590576172
0.16793893129770993,-3.312977099236641,-0.08396946564885496,0.0009024143218994141
0.09923664122137404,-3.5114503816793894,-0.1450381679389313,0.000934600830078125
-0.007633587786259542,-3.5267175572519083,-0.20610687022900764,0.0009036064147949219
0.03816793893129771,-3.3740458015267176,-0.030534351145038167,0.0009028911590576172
0.12213740458015267,-3.3587786259541983,0.007633587786259542,0.0009028911590576172
0.061068702290076333,-3.351145038167939,0.007633587786259542,0.0009860992431640625
0.04580152671755725,-3.2977099236641223,-0.05343511450381679,0.0009083747863769531
0.08396946564885496,-3.2595419847328246,-0.0916030534351145,0.0009033679962158203
0.03816793893129771,-3.2748091603053435,-0.04580152671755725,0.0009036064147949219
-0.04580152671755725,-3.4122137404580153,0.007633587786259542,0.0009024143218994141
0.007633587786259542,-3.49618320610687,0.04580152671755725,0.0009033679962158203
0.10687022900763359,-3.6030534351145036,-0.0916030534351145,0.0009014606475830078
0.0916030534351145,-3.3435114503816794,0.007633587786259542,0.0009028911590576172
0.08396946564885496,-3.3053435114503817,-0.022900763358778626,0.0009021759033203125
0.007633587786259542,-3.3206106870229006,-0.04580152671755725,0.0009028911590576172
0.0,-3.2977099236641223,-0.09923664122137404,0.0009033679962158203
-0.022900763358778626,-3.351145038167939,-0.05343511450381679,0.0008997917175292969
0.030534351145038167,-3.49618320610687,-0.03816793893129771,0.0009026527404785156
0.05343511450381679,-3.50381679389313,-0.05343511450381679,0.0009026527404785156
0.04580152671755725,-3.4885496183206106,-0.11450381679389313,0.0009026527404785156
0.09923664122137404,-3.5114503816793894,0.007633587786259542,0.0009021759033203125
0.20610687022900764,-3.4122137404580153,0.05343511450381679,0.0009031295776367188
0.11450381679389313,-3.3969465648854964,0.2366412213740458,0.0009028911590576172
0.015267175572519083,-3.435114503816794,0.030534351145038167,0.0009031295776367188
0.04580152671755725,-3.4198473282442747,-0.0916030534351145,0.0009019374847412109
0.030534351145038167,-3.16793893129771,-0.11450381679389313,0.0009021759033203125
0.022900763358778626,-3.198473282442748,-0.0916030534351145,0.0009026527404785156
0.061068702290076333,-3.3435114503816794,-0.183206106870229,0.0009028911590576172
0.007633587786259542,-3.549618320610687,0.030534351145038167,0.0009036064147949219
0.015267175572519083,-3.6106870229007635,0.06870229007633588,0.0009024143218994141
0.0916030534351145,-3.5572519083969465,0.061068702290076333,0.0009024143218994141
0.09923664122137404,-3.3740458015267176,0.061068702290076333,0.0009019374847412109
0.007633587786259542,-3.3206106870229006,-0.06870229007633588,0.0009026527404785156
0.04580152671755725,-3.3282442748091605,-0.19083969465648856,0.0009024143218994141
0.10687022900763359,-3.549618320610687,-0.0916030534351145,0.0009026527404785156
0.0916030534351145,-3.6946564885496183,0.030534351145038167,0.0009016990661621094
0.03816793893129771,-3.5801526717557253,0.07633587786259542,0.0009019374847412109
0.022900763358778626,-3.404580152671756,0.16793893129770993,0.0009024143218994141
0.0916030534351145,-3.312977099236641,-0.04580152671755725,0.0009012222290039062
0.05343511450381679,-3.2900763358778624,-0.03816793893129771,0.0009019374847412109
0.16793893129770993,-3.2290076335877864,-0.04580152671755725,0.0009026527404785156
0.09923664122137404,-3.366412213740458,0.10687022900763359,0.0009026527404785156
0.07633587786259542,-3.5419847328244276,0.19083969465648856,0.0009012222290039062
0.04580152671755725,-3.5114503816793894,0.11450381679389313,0.0009014606475830078
0.16793893129770993,-3.549618320610687,0.030534351145038167,0.0009019374847412109
0.12213740458015267,-3.572519083969466,0.10687022900763359,0.0009169578552246094
0.1450381679389313,-3.648854961832061,-0.08396946564885496,0.0009036064147949219
0.10687022900763359,-3.480916030534351,-0.06870229007633588,0.0009026527404785156
0.022900763358778626,-3.3740458015267176,-0.17557251908396945,0.0009024143218994141
0.07633587786259542,-3.198473282442748,-0.1450381679389313,0.0009024143218994141
0.061068702290076333,-3.2519083969465647,-0.022900763358778626,0.0009028911590576172
0.007633587786259542,-3.3282442748091605,0.08396946564885496,0.0009021759033203125
0.007633587786259542,-3.427480916030534,0.13740458015267176,0.0009028911590576172
0.03816793893129771,-3.2977099236641223,0.007633587786259542,0.0009028911590576172
0.08396946564885496,-3.381679389312977,-0.13740458015267176,0.0009026527404785156
0.1984732824427481,-3.3969465648854964,-0.015267175572519083,0.0009005069732666016
0.19083969465648856,-3.351145038167939,0.007633587786259542,0.0009009838104248047
0.20610687022900764,-3.4885496183206106,-0.007633587786259542,0.0009009838104248047
0.1450381679389313,-3.564885496183206,0.08396946564885496,0.0009007453918457031
0.09923664122137404,-3.618320610687023,0.0,0.0009021759033203125
0.0,-3.6106870229007635,-0.05343511450381679,0.0008990764617919922
-0.04580152671755725,-3.4732824427480917,-0.1297709923664122,0.0008990764617919922
-0.10687022900763359,-3.4580152671755724,-0.007633587786259542,0.0009009838104248047
-0.10687022900763359,-3.5877862595419847,0.08396946564885496,0.0009031295776367188
-0.007633587786259542,-3.572519083969466,0.12213740458015267,0.0009021759033203125
-0.015267175572519083,-3.564885496183206,0.030534351145038167,0.0009012222290039062
-0.007633587786259542,-3.3969465648854964,0.1450381679389313,0.0009012222290039062
0.030534351145038167,-3.4198473282442747,-0.07633587786259542,0.0009012222290039062
0.0916030534351145,-3.450381679389313,-0.007633587786259542,0.0009016990661621094
0.1984732824427481,-3.3282442748091605,-0.05343511450381679,0.0009016990661621094
0.16030534351145037,-3.3969465648854964,-0.022900763358778626,0.0009016990661621094
0.09923664122137404,-3.4885496183206106,0.06870229007633588,0.0009016990661621094
0.11450381679389313,-3.427480916030534,0.12213740458015267,0.0009014606475830078
0.22900763358778625,-3.427480916030534,0.09923664122137404,0.0009009838104248047
0.19083969465648856,-3.4122137404580153,0.10687022900763359,0.0009007453918457031
0.11450381679389313,-3.4198473282442747,0.08396946564885496,0.0009002685546875
0.183206106870229,-3.3893129770992365,0.2748091603053435,0.0009033679962158203
0.17557251908396945,-3.427480916030534,0.0916030534351145,0.0009028911590576172
0.13740458015267176,-3.4427480916030535,-0.015267175572519083,0.0009019374847412109
0.022900763358778626,-3.3969465648854964,0.007633587786259542,0.0009026527404785156
0.11450381679389313,-3.4122137404580153,-0.04580152671755725,0.0009028911590576172
0.16030534351145037,-3.4885496183206106,0.03816793893129771,0.0009295940399169922
0.1297709923664122,-3.6412213740458017,0.1297709923664122,0.0009071826934814453
0.13740458015267176,-3.6564885496183206,0.09923664122137404,0.0009031295776367188
0.16793893129770993,-3.572519083969466,0.11450381679389313,0.0009024143218994141
0.007633587786259542,-3.572519083969466,0.07633587786259542,0.000904083251953125
-0.04580152671755725,-3.435114503816794,-0.03816793893129771,0.0009012222290039062
0.08396946564885496,-3.267175572519084,0.08396946564885496,0.0009028911590576172
0.12213740458015267,-3.3206106870229006,0.06870229007633588,0.0009024143218994141
0.06870229007633588,-3.366412213740458,0.26717557251908397,0.0009026527404785156
0.030534351145038167,-3.4656488549618323,0.22137404580152673,0.0009026527404785156
0.04580152671755725,-3.480916030534351,0.19083969465648856,0.0009016990661621094
0.1984732824427481,-3.519083969465649,0.022900763358778626,0.0009021759033203125
0.1984732824427481,-3.4885496183206106,-0.022900763358778626,0.0009026527404785156
0.06870229007633588,-3.480916030534351,-0.12213740458015267,0.0009036064147949219
0.07633587786259542,-3.50381679389313,0.022900763358778626,0.0009024143218994141
0.16793893129770993,-3.450381679389313,0.1984732824427481,0.0009024143218994141
0.030534351145038167,-3.4427480916030535,0.24427480916030533,0.0009016990661621094
0.07633587786259542,-3.381679389312977,0.1984732824427481,0.0009229183197021484
0.21374045801526717,-3.4732824427480917,0.1450381679389313,0.0009036064147949219
0.24427480916030533,-3.33587786259542,0.015267175572519083,0.0009021759033203125
0.17557251908396945,-3.3740458015267176,-0.10687022900763359,0.0009026527404785156
0.09923664122137404,-3.3587786259541983,-0.022900763358778626,0.0009026527404785156
0.1297709923664122,-3.3282442748091605,0.1297709923664122,0.0009033679962158203
0.19083969465648856,-3.2900763358778624,0.17557251908396945,0.0009019374847412109
0.2900763358778626,-3.381679389312977,0.10687022900763359,0.001026153564453125
0.2824427480916031,-3.4732824427480917,-0.06870229007633588,0.0009059906005859375
0.16793893129770993,-3.49618320610687,-0.12213740458015267,0.0009052753448486328
0.022900763358778626,-3.3053435114503817,-0.07633587786259542,0.0009026527404785156
0.16793893129770993,-3.2900763358778624,0.10687022900763359,0.0009038448333740234
0.22900763358778625,-3.381679389312977,0.19083969465648856,0.0009024143218994141
0.22900763358778625,-3.5114503816793894,0.11450381679389313,0.0009024143218994141
0.17557251908396945,-3.4656488549618323,-0.007633587786259542,0.0009036064147949219
0.10687022900763359,-3.404580152671756,-0.061068702290076333,0.0009021759033203125
0.061068702290076333,-3.480916030534351,0.16030534351145037,0.0009028911590576172
0.09923664122137404,-3.4656488549618323,0.19083969465648856,0.0009026527404785156
0.16030534351145037,-3.3206106870229006,0.19083969465648856,0.0009026527404785156
-0.007633587786259542,-3.3587786259541983,-0.07633587786259542,0.0009019374847412109
0.030534351145038167,-3.33587786259542,-0.05343511450381679,0.0009031295776367188
0.12213740458015267,-3.4580152671755724,-0.03816793893129771,0.0009026527404785156
0.16030534351145037,-3.427480916030534,0.007633587786259542,0.0009031295776367188
0.16030534351145037,-3.3053435114503817,-0.04580152671755725,0.0009014606475830078
0.07633587786259542,-3.282442748091603,0.04580152671755725,0.0009026527404785156
0.08396946564885496,-3.3435114503816794,0.06870229007633588,0.0009021759033203125
0.183206106870229,-3.366412213740458,0.12213740458015267,0.0009026527404785156
0.2748091603053435,-3.564885496183206,0.015267175572519083,0.0009026527404785156
0.15267175572519084,-3.6030534351145036,0.03816793893129771,0.0009016990661621094
0.1984732824427481,-3.480916030534351,0.0916030534351145,0.0009019374847412109
0.183206106870229,-3.404580152671756,0.13740458015267176,0.0009014606475830078
0.19083969465648856,-3.2900763358778624,0.3893129770992366,0.0009024143218994141
0.16793893129770993,-3.2595419847328246,0.2366412213740458,0.0009021759033203125
0.0,-3.4198473282442747,0.05343511450381679,0.0009016990661621094
-0.09923664122137404,-3.435114503816794,0.08396946564885496,0.0009014606475830078
0.061068702290076333,-3.4122137404580153,-0.022900763358778626,0.0009021759033203125
0.08396946564885496,-3.4122137404580153,-0.15267175572519084,0.0009036064147949219
0.0,-3.4885496183206106,-0.11450381679389313,0.0009012222290039062
0.08396946564885496,-3.633587786259542,-0.03816793893129771,0.0009007453918457031
0.05343511450381679,-3.4122137404580153,0.11450381679389313,0.0009021759033203125
0.1297709923664122,-3.2061068702290076,0.183206106870229,0.0009036064147949219
0.09923664122137404,-3.2748091603053435,0.183206106870229,0.0009014606475830078
0.022900763358778626,-3.3587786259541983,0.04580152671755725,0.0009019374847412109
-0.09923664122137404,-3.4732824427480917,0.1450381679389313,0.0009024143218994141
-0.10687022900763359,-3.5572519083969465,0.03816793893129771,0.0009222030639648438
0.030534351145038167,-3.6259541984732824,0.0,0.0009038448333740234
0.08396946564885496,-3.648854961832061,0.0,0.0009007453918457031
0.06870229007633588,-3.5343511450381677,0.007633587786259542,0.0009002685546875
0.007633587786259542,-3.2977099236641223,-0.16030534351145037,0.0009033679962158203
-0.03816793893129771,-3.3740458015267176,-0.030534351145038167,0.0009045600891113281
-0.03816793893129771,-3.549618320610687,0.022900763358778626,0.0009026527404785156
0.12213740458015267,-3.50381679389313,0.022900763358778626,0.0009026527404785156
0.22900763358778625,-3.4732824427480917,-0.015267175572519083,0.0009019374847412109
0.25190839694656486,-3.49618320610687,-0.04580152671755725,0.0009038448333740234
0.22137404580152673,-3.5419847328244276,0.030534351145038167,0.0009024143218994141
0.07633587786259542,-3.4122137404580153,0.1450381679389313,0.0009024143218994141
0.08396946564885496,-3.2442748091603053,0.1297709923664122,0.0009019374847412109
0.007633587786259542,-3.2977099236641223,0.05343511450381679,0.0009019374847412109
0.07633587786259542,-3.2977099236641223,0.030534351145038167,0.0009028911590576172
0.11450381679389313,-3.404580152671756,0.0,0.0009012222290039062
0.21374045801526717,-3.5114503816793894,0.007633587786259542,0.0009012222290039062
0.29770992366412213,-3.5267175572519083,0.13740458015267176,0.0009024143218994141
0.11450381679389313,-3.4885496183206106,0.007633587786259542,0.0009028911590576172
-0.04580152671755725,-3.4122137404580153,-0.183206106870229,0.0009014606475830078
0.03816793893129771,-3.5877862595419847,-0.25190839694656486,0.0009028911590576172
0.17557251908396945,-3.6030534351145036,-0.22137404580152673,0.0009028911590576172
0.17557251908396945,-3.4580152671755724,0.03816793893129771,0.0009019374847412109
0.15267175572519084,-3.4427480916030535,0.22137404580152673,0.0009024143218994141
0.20610687022900764,-3.717557251908397,0.24427480916030533,0.0009016990661621094
0.24427480916030533,-3.763358778625954,0.17557251908396945,0.0009021759033203125
0.007633587786259542,-3.6030534351145036,0.03816793893129771,0.0009021759033203125
-0.061068702290076333,-3.4732824427480917,-0.07633587786259542,0.0009026527404785156
-0.07633587786259542,-3.3969465648854964,-0.05343511450381679,0.0009024143218994141
0.1297709923664122,-3.4580152671755724,0.04580152671755725,0.0009026527404785156
0.13740458015267176,-3.5877862595419847,0.09923664122137404,0.0009012222290039062
0.05343511450381679,-3.5572519083969465,0.007633587786259542,0.0009026527404785156
-0.015267175572519083,-3.4122137404580153,0.04580152671755725,0.0009026527404785156
-0.09923664122137404,-3.4732824427480917,-0.04580152671755725,0.0009024143218994141
0.007633587786259542,-3.5877862595419847,-0.030534351145038167,0.0009026527404785156
0.13740458015267176,-3.6106870229007635,-0.022900763358778626,0.0009026527404785156
0.12213740458015267,-3.549618320610687,0.03816793893129771,0.0009031295776367188
0.05343511450381679,-3.49618320610687,-0.007633587786259542,0.0009009838104248047
0.05343511450381679,-3.4656488549618323,-0.022900763358778626,0.0009021759033203125
0.04580152671755725,-3.49618320610687,-0.022900763358778626,0.0009028911590576172
0.13740458015267176,-3.595419847328244,-0.26717557251908397,0.0009031295776367188
0.09923664122137404,-3.595419847328244,-0.07633587786259542,0.0009026527404785156
0.08396946564885496,-3.5343511450381677,0.022900763358778626,0.0009021759033203125
0.22137404580152673,-3.4122137404580153,0.015267175572519083,0.0009024143218994141
0.13740458015267176,-3.3740458015267176,-0.06870229007633588,0.0009019374847412109
0.030534351145038167,-3.3206106870229006,0.0,0.0009031295776367188
0.0,-3.3893129770992365,-0.022900763358778626,0.0009002685546875
0.022900763358778626,-3.6106870229007635,-0.015267175572519083,0.0009000301361083984
0.015267175572519083,-3.7480916030534353,-0.07633587786259542,0.0009026527404785156
0.1450381679389313,-3.5419847328244276,0.03816793893129771,0.0009031295776367188
0.061068702290076333,-3.5343511450381677,0.04580152671755725,0.0009014606475830078
-0.05343511450381679,-3.633587786259542,0.04580152671755725,0.0009021759033203125
-0.015267175572519083,-3.618320610687023,0.015267175572519083,0.0009021759033203125
-0.07633587786259542,-3.480916030534351,0.0,0.0009038448333740234
0.022900763358778626,-3.3969465648854964,-0.07633587786259542,0.0009009838104248047
0.04580152671755725,-3.2748091603053435,0.007633587786259542,0.0009026527404785156
0.05343511450381679,-3.213740458015267,-0.03816793893129771,0.0009021759033203125
0.0916030534351145,-3.3740458015267176,0.007633587786259542,0.0009026527404785156
0.09923664122137404,-3.4732824427480917,-0.015267175572519083,0.0009033679962158203
0.16030534351145037,-3.5267175572519083,0.061068702290076333,0.0009019374847412109
0.030534351145038167,-3.572519083969466,-0.08396946564885496,0.0009024143218994141
0.015267175572519083,-3.49618320610687,-0.1297709923664122,0.0009026527404785156
0.0,-3.3893129770992365,-0.1450381679389313,0.0009028911590576172
-0.08396946564885496,-3.3587786259541983,0.061068702290076333,0.0009002685546875
0.04580152671755725,-3.312977099236641,0.007633587786259542,0.000982522964477539
0.07633587786259542,-3.3587786259541983,0.06870229007633588,0.0009064674377441406
0.1450381679389313,-3.4427480916030535,0.08396946564885496,0.0009031295776367188
0.22137404580152673,-3.4580152671755724,0.015267175572519083,0.0009093284606933594
0.1297709923664122,-3.404580152671756,0.0916030534351145,0.0009026527404785156
0.11450381679389313,-3.4198473282442747,0.12213740458015267,0.0009019374847412109
0.1297709923664122,-3.3893129770992365,0.11450381679389313,0.0009026527404785156
0.061068702290076333,-3.4732824427480917,0.061068702290076333,0.0009026527404785156
0.05343511450381679,-3.5343511450381677,0.22900763358778625,0.0009019374847412109
0.0,-3.5267175572519083,0.007633587786259542,0.0009021759033203125
-0.03816793893129771,-3.312977099236641,0.0,0.0009000301361083984
-0.022900763358778626,-3.198473282442748,-0.183206106870229,0.0009009838104248047
-0.0916030534351145,-3.2748091603053435,-0.0916030534351145,0.0009021759033203125
-0.015267175572519083,-3.312977099236641,-0.1297709923664122,0.0009026527404785156
0.08396946564885496,-3.4885496183206106,0.0,0.0009021759033203125
0.030534351145038167,-3.564885496183206,0.1297709923664122,0.0009009838104248047
0.015267175572519083,-3.49618320610687,0.21374045801526717,0.0009028911590576172
0.1297709923664122,-3.3587786259541983,0.007633587786259542,0.0009019374847412109
0.2366412213740458,-3.3587786259541983,-0.04580152671755725,0.0009019374847412109
0.1984732824427481,-3.4122137404580153,-0.03816793893129771,0.0009024143218994141
0.07633587786259542,-3.427480916030534,0.0,0.0009033679962158203
0.1984732824427481,-3.4122137404580153,-0.06870229007633588,0.0008993148803710938
0.20610687022900764,-3.282442748091603,-0.10687022900763359,0.0009021759033203125
0.13740458015267176,-3.236641221374046,0.007633587786259542,0.0009026527404785156
0.030534351145038167,-3.3206106870229006,-0.007633587786259542,0.0009014606475830078
0.10687022900763359,-3.4198473282442747,-0.08396946564885496,0.0009028911590576172
0.183206106870229,-3.2977099236641223,0.030534351145038167,0.0009021759033203125
0.20610687022900764,-3.2595419847328246,0.0916030534351145,0.0009024143218994141
0.1984732824427481,-3.2748091603053435,0.0916030534351145,0.0009024143218994141
0.03816793893129771,-3.3435114503816794,0.20610687022900764,0.0009026527404785156
0.007633587786259542,-3.4732824427480917,0.2366412213740458,0.0009024143218994141
0.05343511450381679,-3.404580152671756,0.1450381679389313,0.0009019374847412109
0.1984732824427481,-3.5343511450381677,0.007633587786259542,0.0009019374847412109
0.2595419847328244,-3.5267175572519083,0.04580152671755725,0.0009019374847412109
0.22900763358778625,-3.3206106870229006,-0.04580152671755725,0.0009031295776367188
0.25190839694656486,-3.2977099236641223,0.0916030534351145,0.0009019374847412109
0.22900763358778625,-3.435114503816794,0.0916030534351145,0.0009016990661621094
0.25190839694656486,-3.763358778625954,0.1450381679389313,0.0009021759033203125
0.16793893129770993,-3.763358778625954,-0.03816793893129771,0.0009031295776367188
0.06870229007633588,-3.435114503816794,-0.1984732824427481,0.0009024143218994141
0.1297709923664122,-3.4198473282442747,-0.2900763358778626,0.0009021759033203125
0.10687022900763359,-3.49618320610687,-0.1984732824427481,0.0009028911590576172
0.11450381679389313,-3.564885496183206,-0.09923664122137404,0.0009031295776367188
0.2366412213740458,-3.5343511450381677,0.13740458015267176,0.0009024143218994141
0.183206106870229,-3.427480916030534,0.030534351145038167,0.0009024143218994141
0.0916030534351145,-3.4198473282442747,-0.08396946564885496,0.0009016990661621094
0.015267175572519083,-3.4427480916030535,-0.1297709923664122,0.0009021759033203125
0.061068702290076333,-3.4732824427480917,0.007633587786259542,0.0009028911590576172
0.07633587786259542,-3.5877862595419847,-0.04580152671755725,0.0009016990661621094
0.05343511450381679,-3.4885496183206106,0.030534351145038167,0.0009031295776367188
0.07633587786259542,-3.4122137404580153,0.007633587786259542,0.0009031295776367188
0.0,-3.549618320610687,0.08396946564885496,0.0009031295776367188
0.07633587786259542,-3.5267175572519083,0.06870229007633588,0.0008997917175292969
0.007633587786259542,-3.3206106870229006,-0.022900763358778626,0.0009021759033203125
-0.07633587786259542,-3.2519083969465647,0.015267175572519083,0.0009024143218994141
0.0916030534351145,-3.3206106870229006,0.06870229007633588,0.0009021759033203125
0.25190839694656486,-3.5343511450381677,0.12213740458015267,0.0009026527404785156
0.08396946564885496,-3.5572519083969465,0.05343511450381679,0.0009016990661621094
