emg_0,emg_1,emg_2,emg_3,emg_4,acc_x,acc_y,acc_z,gyro_x,gyro_y,gyro_z,dt
0.0,0.0,0.0,0.0,0.0,0.0,0.2158799171447754
0.0,0.0,0.0,0.0,0.0,0.0,0.0018591880798339844
0.0,0.0,0.0,0.0,0.0,0.0,0.0017805099487304688
0.0,0.0,0.0,-9.435114503816793,-18.31297709923664,13.419847328244275,0.0017786026000976562
-0.3245849609375,-0.2764892578125,0.80126953125,-14.877862595419847,-26.412213740458014,13.618320610687023,0.0017986297607421875
-0.3292236328125,-0.2811279296875,0.79833984375,-15.51908396946565,-25.053435114503817,11.106870229007633,0.0017974376678466797
-0.3245849609375,-0.2752685546875,0.792724609375,-15.610687022900763,-19.885496183206108,9.129770992366412,0.0018262863159179688
-0.3245849609375,-0.2781982421875,0.80322265625,-15.183206106870228,-10.312977099236642,3.687022900763359,0.0017931461334228516
-0.3245849609375,-0.2835693359375,0.80517578125,-14.122137404580153,2.7480916030534353,3.9389312977099236,0.0017936229705810547
-0.3250732421875,-0.2816162109375,0.8056640625,-26.50381679389313,9.893129770992367,4.961832061068702,0.0017902851104736328
-0.3267822265625,-0.2825927734375,0.806640625,-29.259541984732824,-9.106870229007633,5.076335877862595,0.0017936229705810547
-0.3209228515625,-0.2825927734375,0.806884765625,-3.381679389312977,-14.458015267175572,5.038167938931298,0.0017902851104736328
-0.3233642578125,-0.2833251953125,0.814697265625,1.1297709923664123,-3.885496183206107,4.709923664122138,0.0017917156219482422
-0.3236083984375,-0.2838134765625,0.80810546875,-1.2366412213740459,-3.6564885496183206,2.1374045801526718,0.0017902851104736328
-0.3255615234375,-0.2764892578125,0.805908203125,-1.0534351145038168,-4.847328244274809,-0.6717557251908397,0.0017919540405273438
-0.3282470703125,-0.2813720703125,0.7998046875,-0.8244274809160306,-4.67175572519084,0.2900763358778626,0.0018956661224365234
-0.3240966796875,-0.2816162109375,0.80517578125,-1.015267175572519,-4.587786259541985,0.26717557251908397,0.001987934112548828
-0.3289794921875,-0.2838134765625,0.8056640625,-1.1755725190839694,-4.603053435114504,0.21374045801526717,0.0019655227661132812
-0.3336181640625,-0.2850341796875,0.79345703125,-1.0458015267175573,-4.519083969465649,-0.07633587786259542,0.001894235610961914
-0.3328857421875,-0.2874755859375,0.803955078125,-1.251908396946565,-4.534351145038168,-0.030534351145038167,0.001794576644897461
-0.3270263671875,-0.2791748046875,0.794677734375,-1.2671755725190839,-4.572519083969466,0.015267175572519083,0.00179290771484375
-0.3289794921875,-0.2786865234375,0.794189453125,-1.4580152671755726,-4.351145038167939,-0.022900763358778626,0.0017917156219482422
-0.3294677734375,-0.2830810546875,0.80078125,-1.7557251908396947,-3.9618320610687023,0.16030534351145037,0.001790761947631836
-0.3243408203125,-0.2823486328125,0.801513671875,-1.5877862595419847,-4.0534351145038165,0.17557251908396945,0.0017917156219482422
-0.3331298828125,-0.2774658203125,0.80224609375,-1.618320610687023,-3.969465648854962,0.007633587786259542,0.0017960071563720703
-0.3240966796875,-0.2806396484375,0.8203125,-1.6488549618320612,-3.7404580152671754,0.1450381679389313,0.0017931461334228516
-0.3267822265625,-0.2806396484375,0.80224609375,-1.7328244274809161,-3.83206106870229,0.0,0.0017900466918945312
-0.3233642578125,-0.2789306640625,0.796630859375,-1.5572519083969465,-3.8625954198473282,-0.15267175572519084,0.001790761947631836
-0.3253173828125,-0.2816162109375,0.801513671875,-1.6259541984732824,-3.6412213740458017,-0.20610687022900764,0.001809835433959961
-0.3258056640625,-0.2828369140625,0.79736328125,-1.5725190839694656,-3.633587786259542,-0.0916030534351145,0.001791238784790039
-0.3265380859375,-0.2779541015625,0.804443359375,-1.4580152671755726,-3.717557251908397,-0.29770992366412213,0.0017900466918945312
-0.3243408203125,-0.2764892578125,0.798583984375,-1.6412213740458015,-3.801526717557252,-0.183206106870229,0.001790761947631836
-0.3272705078125,-0.2784423828125,0.800048828125,-1.717557251908397,-3.7251908396946565,-0.2900763358778626,0.0017948150634765625
-0.3216552734375,-0.2757568359375,0.78369140625,-1.702290076335878,-3.8473282442748094,-0.16030534351145037,0.0017936229705810547
-0.3270263671875,-0.2821044921875,0.7900390625,-1.5419847328244274,-3.7709923664122136,-0.06870229007633588,0.0017924308776855469
-0.3243408203125,-0.2752685546875,0.78515625,-1.5267175572519085,-3.732824427480916,-0.3969465648854962,0.0017948150634765625
-0.3236083984375,-0.2777099609375,0.78662109375,-1.534351145038168,-3.564885496183206,-0.22137404580152673,0.0017926692962646484
-0.3179931640625,-0.2757568359375,0.783935546875,-1.5954198473282444,-3.7022900763358777,-0.1450381679389313,0.0017914772033691406
-0.3250732421875,-0.2750244140625,0.794677734375,-1.4580152671755726,-3.7786259541984735,-0.08396946564885496,0.00179290771484375
-0.3255615234375,-0.2801513671875,0.788818359375,-1.3511450381679388,-3.4122137404580153,-0.04580152671755725,0.0017914772033691406
-0.3228759765625,-0.2747802734375,0.7939453125,-1.4580152671755726,-3.5572519083969465,-0.17557251908396945,0.0017924308776855469
-0.3138427734375,-0.2774658203125,0.793701171875,-1.3587786259541985,-3.801526717557252,-0.07633587786259542,0.0017919540405273438
-0.3155517578125,-0.2781982421875,0.787841796875,-1.213740458015267,-3.801526717557252,-0.022900763358778626,0.0017919540405273438
-0.3187255859375,-0.2698974609375,0.79638671875,-1.0687022900763359,-3.786259541984733,0.04580152671755725,0.00179290771484375
-0.3189697265625,-0.2725830078125,0.80126953125,-1.1297709923664123,-3.854961832061069,0.12213740458015267,0.0017919540405273438
-0.3199462890625,-0.2679443359375,0.802001953125,-0.9694656488549618,-3.763358778625954,0.17557251908396945,0.0017921924591064453
-0.3236083984375,-0.2728271484375,0.79248046875,-0.9236641221374046,-3.7480916030534353,0.17557251908396945,0.0017921924591064453
-0.3280029296875,-0.2750244140625,0.790771484375,-0.8931297709923665,-3.6412213740458017,0.06870229007633588,0.0017931461334228516
-0.3280029296875,-0.2764892578125,0.787353515625,-0.9312977099236641,-3.648854961832061,0.13740458015267176,0.001791238784790039
-0.3204345703125,-0.2784423828125,0.798095703125,-0.8702290076335878,-3.8091603053435112,0.007633587786259542,0.0017917156219482422
-0.3243408203125,-0.2760009765625,0.79052734375,-0.8320610687022901,-3.717557251908397,-0.030534351145038167,0.00179290771484375
-0.3236083984375,-0.2708740234375,0.794921875,-0.8931297709923665,-3.6717557251908395,-0.05343511450381679,0.0017921924591064453
-0.3223876953125,-0.2723388671875,0.795166015625,-0.7251908396946565,-3.786259541984733,0.061068702290076333,0.0017919540405273438
-0.3228759765625,-0.2742919921875,0.787841796875,-0.8015267175572519,-3.8473282442748094,-0.3435114503816794,0.0017924308776855469
-0.3228759765625,-0.2733154296875,0.794677734375,-0.7862595419847328,-3.9618320610687023,-0.31297709923664124,0.001802206039428711
-0.3314208984375,-0.2698974609375,0.785888671875,-0.816793893129771,-4.099236641221374,-0.5114503816793893,0.0017919540405273438
-0.3243408203125,-0.2723388671875,0.792236328125,-0.6870229007633588,-4.091603053435114,-0.7480916030534351,0.0017933845520019531
-0.3187255859375,-0.2735595703125,0.79541015625,-0.6870229007633588,-4.2748091603053435,-0.7709923664122137,0.001791238784790039
-0.3172607421875,-0.2718505859375,0.794921875,-0.8244274809160306,-4.305343511450381,-0.8549618320610687,0.00179290771484375
-0.3245849609375,-0.2750244140625,0.801025390625,-0.7633587786259542,-4.221374045801527,-0.8931297709923665,0.001790761947631836
-0.3189697265625,-0.2730712890625,0.787841796875,-0.6870229007633588,-4.213740458015267,-0.7709923664122137,0.0017924308776855469
-0.3177490234375,-0.2713623046875,0.789794921875,-0.6335877862595419,-4.183206106870229,-0.7862595419847328,0.0017919540405273438
-0.3131103515625,-0.2789306640625,0.788818359375,-0.4198473282442748,-4.00763358778626,-0.7022900763358778,0.0017917156219482422
-0.3243408203125,-0.2728271484375,0.792236328125,-0.4732824427480916,-4.297709923664122,-0.7862595419847328,0.0017924308776855469
-0.3250732421875,-0.2733154296875,0.795654296875,-0.3053435114503817,-4.244274809160306,-0.6564885496183206,0.00179290771484375
-0.3155517578125,-0.2779541015625,0.798828125,-0.3282442748091603,-4.519083969465649,-0.732824427480916,0.0019452571868896484
-0.3231201171875,-0.2772216796875,0.79833984375,-0.2900763358778626,-4.488549618320611,-0.7938931297709924,0.0018048286437988281
-0.3189697265625,-0.2777099609375,0.800537109375,-0.3282442748091603,-4.33587786259542,-0.4961832061068702,0.0017960071563720703
-0.3199462890625,-0.2733154296875,0.79833984375,-0.12213740458015267,-4.206106870229007,-0.5343511450381679,0.0017910003662109375
-0.3140869140625,-0.2825927734375,0.795654296875,-0.19083969465648856,-4.183206106870229,-0.26717557251908397,0.00179290771484375
-0.3123779296875,-0.2757568359375,0.802978515625,-0.33587786259541985,-4.0458015267175576,-0.22900763358778625,0.0017924308776855469
-0.3177490234375,-0.2742919921875,0.80078125,-0.16793893129770993,-4.022900763358779,-0.17557251908396945,0.0017924308776855469
-0.3214111328125,-0.2835693359375,0.7939453125,0.03816793893129771,-3.9770992366412212,-0.1450381679389313,0.00179290771484375
-0.3170166015625,-0.2803955078125,0.789794921875,-0.21374045801526717,-3.8396946564885495,-0.1450381679389313,0.0017919540405273438
-0.3162841796875,-0.2874755859375,0.787353515625,-0.22137404580152673,-3.6412213740458017,0.1297709923664122,0.0017926692962646484
-0.3240966796875,-0.2833251953125,0.78759765625,-0.022900763358778626,-3.7480916030534353,0.183206106870229,0.0017933845520019531
-0.3209228515625,-0.2808837890625,0.791259765625,-0.07633587786259542,-3.763358778625954,0.3053435114503817,0.0017933845520019531
-0.3236083984375,-0.2774658203125,0.797119140625,-0.20610687022900764,-3.5419847328244276,0.3053435114503817,0.0017919540405273438
-0.3267822265625,-0.2835693359375,0.802490234375,-0.3511450381679389,-3.435114503816794,0.2748091603053435,0.00179290771484375
-0.3236083984375,-0.2833251953125,0.788818359375,-0.2366412213740458,-3.5343511450381677,0.366412213740458,0.001790761947631836
-0.3189697265625,-0.2803955078125,0.797119140625,-0.2900763358778626,-3.2900763358778624,0.5114503816793893,0.001791238784790039
-0.3209228515625,-0.2872314453125,0.802978515625,-0.26717557251908397,-3.4580152671755724,0.16793893129770993,0.0017919540405273438
-0.3233642578125,-0.2906494140625,0.803955078125,-0.366412213740458,-3.366412213740458,0.32061068702290074,0.00179290771484375
-0.3187255859375,-0.2828369140625,0.8037109375,-0.35877862595419846,-3.3053435114503817,0.31297709923664124,0.0017914772033691406
-0.3197021484375,-0.2852783203125,0.795654296875,-0.3511450381679389,-3.1908396946564888,0.4732824427480916,0.0017919540405273438
-0.3223876953125,-0.2886962890625,0.805419921875,-0.5114503816793893,-3.312977099236641,0.4198473282442748,0.0017924308776855469
-0.3248291015625,-0.2899169921875,0.800048828125,-0.6641221374045801,-3.427480916030534,0.25190839694656486,0.0017914772033691406
-0.3223876953125,-0.2843017578125,0.80078125,-0.8244274809160306,-3.198473282442748,0.17557251908396945,0.0017919540405273438
-0.3199462890625,-0.2884521484375,0.803466796875,-0.8702290076335878,-3.16793893129771,0.37404580152671757,0.0017914772033691406
-0.3243408203125,-0.2821044921875,0.79736328125,-0.9236641221374046,-3.2061068702290076,0.03816793893129771,0.001791238784790039
-0.3236083984375,-0.2886962890625,0.800048828125,-1.0534351145038168,-3.4885496183206106,0.007633587786259542,0.0017917156219482422
-0.3233642578125,-0.2864990234375,0.7998046875,-1.0,-3.122137404580153,0.015267175572519083,0.0017919540405273438
-0.3236083984375,-0.2845458984375,0.801025390625,-1.0381679389312977,-3.213740458015267,-0.2824427480916031,0.0017910003662109375
-0.3209228515625,-0.2821044921875,0.80810546875,-1.2595419847328244,-3.0839694656488548,0.05343511450381679,0.0017924308776855469
-0.3245849609375,-0.2860107421875,0.79736328125,-1.2671755725190839,-3.16793893129771,-0.10687022900763359,0.0017924308776855469
-0.3175048828125,-0.2818603515625,0.7919921875,-1.1755725190839694,-3.2213740458015265,-0.29770992366412213,0.0017914772033691406
-0.3231201171875,-0.2791748046875,0.7998046875,-1.5877862595419847,-2.946564885496183,-0.06870229007633588,0.0017926692962646484
-0.3218994140625,-0.2833251953125,0.797119140625,-1.4045801526717556,-2.885496183206107,0.007633587786259542,0.0017910003662109375
-0.3214111328125,-0.2830810546875,0.802001953125,-1.4580152671755726,-3.16793893129771,-0.19083969465648856,0.0018091201782226562
-0.3284912109375,-0.2784423828125,0.799072265625,-1.4885496183206106,-3.045801526717557,-0.2366412213740458,0.0017933845520019531
-0.3267822265625,-0.2833251953125,0.797119140625,-1.4274809160305344,-3.068702290076336,-0.32061068702290074,0.0017931461334228516
-0.3333740234375,-0.2762451171875,0.802490234375,-1.4274809160305344,-3.0839694656488548,-0.40458015267175573,0.001810312271118164
-0.3309326171875,-0.2823486328125,0.794677734375,-1.2900763358778626,-2.9618320610687023,-0.06870229007633588,0.001889944076538086
-0.3314208984375,-0.2835693359375,0.798828125,-1.3511450381679388,-2.9923664122137406,-0.3893129770992366,0.0018486976623535156
-0.3250732421875,-0.2774658203125,0.796875,-1.1374045801526718,-2.9923664122137406,-0.4580152671755725,0.001940011978149414
-0.3316650390625,-0.2806396484375,0.796630859375,-1.2061068702290076,-3.0610687022900764,-0.33587786259541985,0.0018329620361328125
-0.3319091796875,-0.2760009765625,0.801025390625,-1.2366412213740459,-3.0763358778625953,-0.5419847328244275,0.0017936229705810547
-0.3289794921875,-0.2823486328125,0.80224609375,-1.2290076335877862,-2.9083969465648853,-0.40458015267175573,0.001795053482055664
-0.3275146484375,-0.2777099609375,0.7958984375,-1.1221374045801527,-3.0839694656488548,-0.25190839694656486,0.0017902851104736328
-0.3284912109375,-0.2779541015625,0.7998046875,-0.8015267175572519,-3.1526717557251906,-0.3816793893129771,0.0017910003662109375
-0.3272705078125,-0.2769775390625,0.786376953125,-0.9007633587786259,-3.122137404580153,-0.22900763358778625,0.0017900466918945312
-0.3267822265625,-0.2789306640625,0.788818359375,-0.8091603053435115,-3.435114503816794,-0.5114503816793893,0.0017957687377929688
-0.3272705078125,-0.2772216796875,0.788818359375,-0.8549618320610687,-3.2595419847328246,-0.6717557251908397,0.0017921924591064453
-0.3294677734375,-0.2760009765625,0.796875,-0.6717557251908397,-3.2290076335877864,-0.6335877862595419,0.0017886161804199219
-0.3299560546875,-0.2816162109375,0.791748046875,-0.732824427480916,-3.0763358778625953,-0.6183206106870229,0.001794576644897461
-0.3284912109375,-0.2818603515625,0.787841796875,-0.7709923664122137,-3.351145038167939,-0.7938931297709924,0.0017924308776855469
-0.3306884765625,-0.2772216796875,0.79296875,-0.8091603053435115,-3.381679389312977,-0.5343511450381679,0.0017931461334228516
-0.3297119140625,-0.2840576171875,0.787353515625,-0.8549618320610687,-3.267175572519084,-0.5801526717557252,0.0018017292022705078
-0.3211669921875,-0.2845458984375,0.783935546875,-1.015267175572519,-3.3053435114503817,-0.5343511450381679,0.0017938613891601562
-0.3309326171875,-0.2835693359375,0.79248046875,-0.9312977099236641,-3.50381679389313,-0.6030534351145038,0.0017914772033691406
-0.3262939453125,-0.2803955078125,0.79052734375,-0.7938931297709924,-3.427480916030534,-0.5801526717557252,0.0017924308776855469
-0.3338623046875,-0.2835693359375,0.788818359375,-0.6717557251908397,-3.33587786259542,-0.7022900763358778,0.0017926692962646484
-0.3253173828125,-0.2847900390625,0.786376953125,-0.8854961832061069,-3.66412213740458,-0.7099236641221374,0.0017926692962646484
-0.3211669921875,-0.2799072265625,0.78662109375,-0.7862595419847328,-3.3740458015267176,-0.5572519083969466,0.0017919540405273438
-0.3226318359375,-0.2777099609375,0.782470703125,-0.6412213740458015,-3.5114503816793894,-0.7175572519083969,0.0017926692962646484
-0.3292236328125,-0.2874755859375,0.785400390625,-0.6793893129770993,-3.4580152671755724,-0.6793893129770993,0.0018107891082763672
-0.3287353515625,-0.2879638671875,0.79150390625,-0.6946564885496184,-3.312977099236641,-0.48854961832061067,0.0017924308776855469
-0.3243408203125,-0.2860107421875,0.78955078125,-0.6106870229007634,-3.4122137404580153,-0.5343511450381679,0.0017926692962646484
-0.3277587890625,-0.2803955078125,0.781005859375,-0.5877862595419847,-3.1374045801526718,-0.5572519083969466,0.0019426345825195312
-0.3277587890625,-0.2850341796875,0.787353515625,-0.6106870229007634,-3.015267175572519,-0.5801526717557252,0.0018033981323242188
-0.3245849609375,-0.2838134765625,0.783935546875,-0.7557251908396947,-3.145038167938931,-0.4351145038167939,0.0017948150634765625
-0.3228759765625,-0.2828369140625,0.789794921875,-0.6259541984732825,-3.2977099236641223,-0.40458015267175573,0.0017931461334228516
-0.3209228515625,-0.2857666015625,0.789306640625,-0.6793893129770993,-3.236641221374046,-0.5267175572519084,0.00179290771484375
-0.3250732421875,-0.2847900390625,0.788330078125,-0.6717557251908397,-3.045801526717557,-0.4198473282442748,0.0017917156219482422
-0.3223876953125,-0.2840576171875,0.787353515625,-0.7022900763358778,-3.0381679389312977,-0.25190839694656486,0.0017931461334228516
-0.3253173828125,-0.2840576171875,0.782470703125,-0.8244274809160306,-3.2748091603053435,-0.19083969465648856,0.0017926692962646484
-0.3294677734375,-0.2845458984375,0.79638671875,-0.6793893129770993,-3.1908396946564888,-0.08396946564885496,0.0017931461334228516
-0.3275146484375,-0.2884521484375,0.780029296875,-0.6793893129770993,-3.1526717557251906,-0.0916030534351145,0.0017921924591064453
-0.3160400390625,-0.2823486328125,0.7919921875,-0.7251908396946565,-3.3206106870229006,0.061068702290076333,0.00179290771484375
-0.3304443359375,-0.2825927734375,0.791259765625,-0.8320610687022901,-3.236641221374046,-0.05343511450381679,0.0017919540405273438
-0.3231201171875,-0.2838134765625,0.795166015625,-0.8625954198473282,-3.2442748091603053,-0.007633587786259542,0.0018084049224853516
-0.3289794921875,-0.2864990234375,0.784912109375,-0.648854961832061,-3.4656488549618323,-0.29770992366412213,0.0017938613891601562
-0.3297119140625,-0.2789306640625,0.798095703125,-0.8778625954198473,-3.3053435114503817,-0.3893129770992366,0.0017931461334228516
-0.3287353515625,-0.2801513671875,0.7919921875,-0.6870229007633588,-3.519083969465649,-0.37404580152671757,0.0017926692962646484
-0.3260498046875,-0.2918701171875,0.782958984375,-0.6793893129770993,-3.66412213740458,-0.33587786259541985,0.0017924308776855469
-0.3179931640625,-0.2867431640625,0.7880859375,-0.7938931297709924,-3.66412213740458,-0.6564885496183206,0.0017921924591064453
-0.3284912109375,-0.2860107421875,0.789794921875,-0.6793893129770993,-3.7786259541984735,-0.6717557251908397,0.00179290771484375
-0.3248291015625,-0.2879638671875,0.790771484375,-0.8091603053435115,-3.5877862595419847,-0.7251908396946565,0.00179290771484375
-0.3294677734375,-0.2852783203125,0.798095703125,-0.7557251908396947,-3.786259541984733,-0.7175572519083969,0.0017914772033691406
-0.3282470703125,-0.2857666015625,0.786376953125,-0.7938931297709924,-3.8244274809160306,-0.6641221374045801,0.0017933845520019531
-0.3277587890625,-0.2899169921875,0.79736328125,-1.0458015267175573,-3.816793893129771,-0.5954198473282443,0.0017926692962646484
-0.3287353515625,-0.2896728515625,0.79443359375,-0.9618320610687023,-3.9236641221374047,-0.732824427480916,0.0017914772033691406
-0.3253173828125,-0.2874755859375,0.7958984375,-0.9389312977099237,-4.061068702290076,-0.5419847328244275,0.0017921924591064453
-0.3299560546875,-0.2874755859375,0.795166015625,-1.1374045801526718,-3.5114503816793894,-0.6641221374045801,0.0017921924591064453
-0.3238525390625,-0.2843017578125,0.787353515625,-1.1297709923664123,-3.877862595419847,-0.6717557251908397,0.0017926692962646484
-0.3240966796875,-0.2882080078125,0.797607421875,-1.282442748091603,-3.7938931297709924,-0.366412213740458,0.0017921924591064453
-0.3341064453125,-0.2913818359375,0.793212890625,-1.3129770992366412,-3.648854961832061,-0.366412213740458,0.0017933845520019531
-0.3302001953125,-0.2913818359375,0.786376953125,-1.1755725190839694,-3.50381679389313,-0.3816793893129771,0.0017917156219482422
-0.3309326171875,-0.2921142578125,0.789306640625,-0.9465648854961832,-3.4580152671755724,-0.24427480916030533,0.0017926692962646484
-0.3321533203125,-0.2904052734375,0.78564453125,-0.9465648854961832,-3.404580152671756,-0.3969465648854962,0.0017914772033691406
-0.3331298828125,-0.2899169921875,0.789306640625,-1.099236641221374,-3.4198473282442747,-0.5419847328244275,0.0017919540405273438
-0.3338623046875,-0.2833251953125,0.779296875,-0.8702290076335878,-3.2977099236641223,-0.3893129770992366,0.0017926692962646484
-0.3270263671875,-0.2855224609375,0.78076171875,-0.9312977099236641,-3.312977099236641,-0.5572519083969466,0.0017917156219482422
-0.3277587890625,-0.2852783203125,0.797607421875,-0.9465648854961832,-3.5419847328244276,-0.6564885496183206,0.0017924308776855469
-0.3323974609375,-0.2847900390625,0.785888671875,-0.9465648854961832,-3.4427480916030535,-0.6717557251908397,0.0017921924591064453
-0.3287353515625,-0.2830810546875,0.795654296875,-0.7099236641221374,-3.183206106870229,-0.4351145038167939,0.0017924308776855469
-0.3267822265625,-0.2877197265625,0.79443359375,-0.7938931297709924,-3.282442748091603,-0.5572519083969466,0.0017919540405273438
-0.3192138671875,-0.2891845703125,0.784912109375,-0.7709923664122137,-3.3587786259541983,-0.35877862595419846,0.0017926692962646484
-0.3243408203125,-0.2911376953125,0.78857421875,-0.8625954198473282,-3.1374045801526718,-0.35877862595419846,0.00179290771484375
-0.3236083984375,-0.2947998046875,0.79052734375,-0.7786259541984732,-3.5877862595419847,-0.5801526717557252,0.0017926692962646484
-0.3238525390625,-0.2884521484375,0.788330078125,-0.7022900763358778,-3.6793893129770994,-0.22900763358778625,0.0017921924591064453
-0.3218994140625,-0.2882080078125,0.794921875,-0.8473282442748091,-3.404580152671756,-0.1297709923664122,0.0017936229705810547
-0.3214111328125,-0.2911376953125,0.792724609375,-0.916030534351145,-3.312977099236641,-0.08396946564885496,0.001791238784790039
-0.3250732421875,-0.2904052734375,0.796142578125,-0.9007633587786259,-3.3435114503816794,0.07633587786259542,0.0017914772033691406
-0.3214111328125,-0.2879638671875,0.797119140625,-0.9007633587786259,-3.3587786259541983,0.03816793893129771,0.00179290771484375
-0.3238525390625,-0.2896728515625,0.795654296875,-1.1450381679389312,-3.1526717557251906,0.061068702290076333,0.0017921924591064453
-0.3265380859375,-0.2906494140625,0.78955078125,-0.9389312977099237,-3.3206106870229006,0.07633587786259542,0.0017924308776855469
-0.3226318359375,-0.2889404296875,0.792236328125,-0.9541984732824428,-3.122137404580153,0.10687022900763359,0.0017919540405273438
-0.3221435546875,-0.2940673828125,0.790283203125,-0.8854961832061069,-3.3587786259541983,0.10687022900763359,0.00179290771484375
-0.3177490234375,-0.2933349609375,0.79443359375,-0.7480916030534351,-3.267175572519084,0.16030534351145037,0.0017910003662109375
-0.3194580078125,-0.2882080078125,0.79052734375,-1.1297709923664123,-3.099236641221374,0.24427480916030533,0.0017919540405273438
-0.3304443359375,-0.2896728515625,0.784912109375,-0.816793893129771,-3.2595419847328246,-0.06870229007633588,0.0017926692962646484
-0.3302001953125,-0.2889404296875,0.796630859375,-0.8702290076335878,-3.045801526717557,0.1297709923664122,0.0017919540405273438
-0.3172607421875,-0.2889404296875,0.794921875,-0.6717557251908397,-2.946564885496183,0.20610687022900764,0.0017914772033691406
-0.3258056640625,-0.2852783203125,0.7890625,-0.7557251908396947,-2.946564885496183,0.1450381679389313,0.0017919540405273438
-0.3199462890625,-0.2896728515625,0.792724609375,-0.7480916030534351,-3.099236641221374,0.15267175572519084,0.0017926692962646484
-0.3182373046875,-0.2913818359375,0.788818359375,-0.7938931297709924,-2.877862595419847,0.1984732824427481,0.0017914772033691406
-0.3209228515625,-0.2904052734375,0.787353515625,-0.9083969465648855,-2.83206106870229,-0.007633587786259542,0.0017921924591064453
-0.3204345703125,-0.2860107421875,0.7978515625,-1.0076335877862594,-3.1755725190839694,0.1984732824427481,0.0017919540405273438
-0.3206787109375,-0.2923583984375,0.796142578125,-1.1450381679389312,-3.0916030534351147,0.26717557251908397,0.0018069744110107422
-0.3155517578125,-0.2845458984375,0.787841796875,-1.0916030534351144,-3.0381679389312977,0.20610687022900764,0.0017931461334228516
-0.3189697265625,-0.2916259765625,0.792724609375,-1.0381679389312977,-3.030534351145038,0.32061068702290074,0.0018658638000488281
-0.3216552734375,-0.2884521484375,0.794677734375,-1.015267175572519,-3.2748091603053435,0.183206106870229,0.001798868179321289
-0.3240966796875,-0.2886962890625,0.784912109375,-1.2061068702290076,-3.366412213740458,0.3435114503816794,0.0017926692962646484
-0.3209228515625,-0.2852783203125,0.789306640625,-1.0229007633587786,-3.053435114503817,0.29770992366412213,0.0017926692962646484
-0.3223876953125,-0.2855224609375,0.79296875,-1.099236641221374,-3.1908396946564888,0.26717557251908397,0.0017924308776855469
-0.3214111328125,-0.2867431640625,0.7861328125,-1.0610687022900764,-3.2519083969465647,0.366412213740458,0.0017921924591064453
-0.3289794921875,-0.2906494140625,0.789306640625,-1.099236641221374,-3.2595419847328246,0.5648854961832062,0.0017914772033691406
-0.3199462890625,-0.2879638671875,0.787353515625,-1.015267175572519,-3.4198473282442747,0.5419847328244275,0.0017926692962646484
-0.3240966796875,-0.2867431640625,0.793212890625,-1.0534351145038168,-3.2900763358778624,0.6259541984732825,0.0017914772033691406
-0.3226318359375,-0.2864990234375,0.7900390625,-0.9083969465648855,-3.2290076335877864,0.6641221374045801,0.0017924308776855469
-0.3218994140625,-0.2796630859375,0.794677734375,-1.1984732824427482,-3.2519083969465647,0.6717557251908397,0.0017914772033691406
-0.3153076171875,-0.2806396484375,0.7861328125,-1.2061068702290076,-3.0763358778625953,0.7709923664122137,0.0017917156219482422
-0.3211669921875,-0.2823486328125,0.7890625,-1.0381679389312977,-3.145038167938931,0.7404580152671756,0.0018148422241210938
-0.3218994140625,-0.2806396484375,0.783203125,-1.0458015267175573,-3.2977099236641223,0.7175572519083969,0.001791238784790039
-0.3250732421875,-0.2818603515625,0.7890625,-0.8931297709923665,-3.2442748091603053,0.7786259541984732,0.0017924308776855469
-0.3221435546875,-0.2835693359375,0.784912109375,-0.8702290076335878,-3.5343511450381677,0.4732824427480916,0.0017914772033691406
-0.3194580078125,-0.2794189453125,0.794189453125,-0.9465648854961832,-3.6030534351145036,0.5038167938931297,0.0017933845520019531
-0.3189697265625,-0.2825927734375,0.789794921875,-0.9694656488549618,-3.2977099236641223,0.6641221374045801,0.0017919540405273438
-0.3233642578125,-0.2874755859375,0.788330078125,-0.9312977099236641,-3.4198473282442747,0.5114503816793893,0.0017948150634765625
-0.3253173828125,-0.2850341796875,0.785400390625,-0.8091603053435115,-3.6717557251908395,0.5038167938931297,0.0017926692962646484
-0.3262939453125,-0.2808837890625,0.797119140625,-0.9465648854961832,-3.4656488549618323,0.4122137404580153,0.0017917156219482422
-0.3240966796875,-0.2891845703125,0.790283203125,-1.083969465648855,-3.3969465648854964,0.2748091603053435,0.0017919540405273438
-0.3238525390625,-0.2872314453125,0.789794921875,-1.0076335877862594,-3.572519083969466,0.5343511450381679,0.0017926692962646484
-0.3262939453125,-0.2764892578125,0.789306640625,-1.0610687022900764,-3.4122137404580153,0.42748091603053434,0.0017919540405273438
-0.3267822265625,-0.2852783203125,0.795654296875,-1.1526717557251909,-3.404580152671756,0.44274809160305345,0.0017914772033691406
-0.3150634765625,-0.2779541015625,0.791259765625,-1.1221374045801527,-3.519083969465649,0.3511450381679389,0.0017926692962646484
-0.3199462890625,-0.2847900390625,0.783203125,-1.1603053435114503,-3.6106870229007635,0.3511450381679389,0.0017910003662109375
-0.3233642578125,-0.2850341796875,0.7841796875,-1.2442748091603053,-3.4732824427480917,0.2366412213740458,0.0017917156219482422
-0.3240966796875,-0.2857666015625,0.78369140625,-1.1145038167938932,-3.8091603053435112,0.31297709923664124,0.0017910003662109375
-0.3272705078125,-0.2821044921875,0.78369140625,-1.0763358778625953,-3.519083969465649,0.366412213740458,0.0017921924591064453
-0.3245849609375,-0.2806396484375,0.79052734375,-0.8625954198473282,-3.732824427480916,0.1297709923664122,0.0017914772033691406
-0.3162841796875,-0.2777099609375,0.791259765625,-0.7557251908396947,-3.7099236641221376,0.26717557251908397,0.0017914772033691406
-0.3192138671875,-0.2838134765625,0.7939453125,-0.6717557251908397,-3.816793893129771,0.22900763358778625,0.0017924308776855469
-0.3240966796875,-0.2860107421875,0.784912109375,-0.5114503816793893,-3.9160305343511452,0.17557251908396945,0.0017926692962646484
-0.3223876953125,-0.2811279296875,0.7890625,-0.44274809160305345,-3.7404580152671754,0.21374045801526717,0.0017924308776855469
-0.3162841796875,-0.2799072265625,0.791015625,-0.4580152671755725,-3.83206106870229,0.3435114503816794,0.0017914772033691406
-0.3179931640625,-0.2811279296875,0.786376953125,-0.4351145038167939,-3.931297709923664,0.3282442748091603,0.0017921924591064453
-0.3216552734375,-0.2818603515625,0.789794921875,-0.35877862595419846,-3.9618320610687023,0.22137404580152673,0.0017902851104736328
-0.3133544921875,-0.2847900390625,0.78759765625,-0.2900763358778626,-3.732824427480916,0.3053435114503817,0.0017914772033691406
-0.3177490234375,-0.2813720703125,0.79052734375,-0.44274809160305345,-3.7938931297709924,0.46564885496183206,0.0017921924591064453
-0.3123779296875,-0.2867431640625,0.793701171875,-0.22137404580152673,-3.9923664122137406,0.5801526717557252,0.0017919540405273438
-0.3211669921875,-0.2803955078125,0.78857421875,-0.4351145038167939,-3.9236641221374047,0.6030534351145038,0.0017914772033691406
-0.3211669921875,-0.2840576171875,0.7978515625,-0.3282442748091603,-3.8396946564885495,0.6870229007633588,0.0017919540405273438
-0.3277587890625,-0.2821044921875,0.79296875,-0.2748091603053435,-3.877862595419847,0.549618320610687,0.0018050670623779297
-0.3214111328125,-0.2882080078125,0.791015625,-0.183206106870229,-4.015267175572519,0.7709923664122137,0.0017910003662109375
-0.3258056640625,-0.2833251953125,0.7861328125,-0.07633587786259542,-3.8625954198473282,0.6717557251908397,0.00179290771484375
-0.3201904296875,-0.2835693359375,0.785400390625,-0.2824427480916031,-4.221374045801527,0.5725190839694656,0.001790761947631836
-0.3223876953125,-0.2821044921875,0.782958984375,-0.24427480916030533,-4.290076335877862,0.4732824427480916,0.0017924308776855469
-0.3192138671875,-0.2803955078125,0.785400390625,-0.17557251908396945,-4.259541984732825,0.5801526717557252,0.0017898082733154297
-0.3199462890625,-0.2794189453125,0.789306640625,-0.2366412213740458,-4.480916030534351,0.46564885496183206,0.0017917156219482422
-0.3140869140625,-0.2838134765625,0.793701171875,-0.20610687022900764,-4.343511450381679,0.5343511450381679,0.0017931461334228516
-0.3194580078125,-0.2847900390625,0.788818359375,-0.29770992366412213,-4.244274809160306,0.7099236641221374,0.0017914772033691406
-0.3218994140625,-0.2786865234375,0.7998046875,-0.32061068702290074,-4.251908396946565,0.8778625954198473,0.0017917156219482422
-0.3184814453125,-0.2835693359375,0.80029296875,-0.3435114503816794,-4.099236641221374,0.6717557251908397,0.0017917156219482422
-0.3192138671875,-0.2899169921875,0.795654296875,-0.3893129770992366,-4.038167938931298,0.6717557251908397,0.0017921924591064453
-0.3214111328125,-0.2828369140625,0.802001953125,-0.5114503816793893,-4.282442748091603,1.0,0.001790761947631836
-0.3214111328125,-0.2843017578125,0.792724609375,-0.45038167938931295,-4.00763358778626,0.9847328244274809,0.0017919540405273438
-0.3240966796875,-0.2828369140625,0.791259765625,-0.5114503816793893,-4.0,1.0229007633587786,0.0017919540405273438
-0.3231201171875,-0.2791748046875,0.799560546875,-0.3893129770992366,-3.9618320610687023,0.7862595419847328,0.0017902851104736328
-0.3245849609375,-0.2808837890625,0.798583984375,-0.31297709923664124,-3.8702290076335877,0.6946564885496184,0.0017921924591064453
-0.3319091796875,-0.2777099609375,0.78369140625,-0.4351145038167939,-3.7480916030534353,0.5267175572519084,0.0017919540405273438
-0.3250732421875,-0.2784423828125,0.80029296875,-0.3893129770992366,-3.786259541984733,0.7099236641221374,0.0017926692962646484
-0.3282470703125,-0.2811279296875,0.79248046875,-0.4732824427480916,-3.9083969465648853,0.4961832061068702,0.0017919540405273438
-0.3236083984375,-0.2774658203125,0.791748046875,-0.5954198473282443,-3.5877862595419847,0.6183206106870229,0.0017926692962646484
-0.3309326171875,-0.2801513671875,0.786865234375,-0.5267175572519084,-3.519083969465649,0.6641221374045801,0.0018754005432128906
-0.3236083984375,-0.2791748046875,0.791259765625,-0.648854961832061,-3.6106870229007635,0.5648854961832062,0.0017981529235839844
-0.3353271484375,-0.2777099609375,0.7958984375,-0.6946564885496184,-3.6412213740458017,0.5877862595419847,0.0017917156219482422
-0.3299560546875,-0.2760009765625,0.796142578125,-0.6717557251908397,-3.549618320610687,0.5343511450381679,0.0017940998077392578
-0.3287353515625,-0.2779541015625,0.788330078125,-0.916030534351145,-3.4427480916030535,0.42748091603053434,0.0017921924591064453
-0.3262939453125,-0.2803955078125,0.798583984375,-0.7633587786259542,-3.427480916030534,0.6259541984732825,0.0017917156219482422
-0.3240966796875,-0.2813720703125,0.79248046875,-0.7709923664122137,-3.2519083969465647,0.6183206106870229,0.0017924308776855469
-0.3248291015625,-0.2794189453125,0.799560546875,-0.9007633587786259,-3.33587786259542,0.7022900763358778,0.0017924308776855469
-0.3255615234375,-0.2847900390625,0.797119140625,-0.7633587786259542,-3.351145038167939,0.4732824427480916,0.0017914772033691406
-0.3294677734375,-0.2774658203125,0.7919921875,-0.7862595419847328,-3.3206106870229006,0.6870229007633588,0.0017919540405273438
-0.3265380859375,-0.2845458984375,0.80419921875,-0.6641221374045801,-3.213740458015267,0.3816793893129771,0.0017924308776855469
-0.3289794921875,-0.2843017578125,0.806640625,-0.4961832061068702,-3.5801526717557253,0.42748091603053434,0.0017910003662109375
-0.3272705078125,-0.2828369140625,0.805908203125,-0.4580152671755725,-3.732824427480916,0.31297709923664124,0.0017921924591064453
-0.3206787109375,-0.2813720703125,0.804443359375,-0.2748091603053435,-3.6717557251908395,0.2595419847328244,0.0017914772033691406
-0.3282470703125,-0.2794189453125,0.794677734375,-0.29770992366412213,-3.8473282442748094,0.1297709923664122,0.0017917156219482422
-0.3236083984375,-0.2779541015625,0.798095703125,-0.20610687022900764,-4.015267175572519,0.09923664122137404,0.0017914772033691406
-0.3267822265625,-0.2835693359375,0.79443359375,-0.0916030534351145,-4.083969465648855,0.16030534351145037,0.001791238784790039
-0.3226318359375,-0.2847900390625,0.796142578125,0.015267175572519083,-4.00763358778626,0.0,0.0017921924591064453
-0.3280029296875,-0.2838134765625,0.802001953125,0.06870229007633588,-4.083969465648855,0.12213740458015267,0.001790761947631836
-0.3206787109375,-0.2806396484375,0.789794921875,0.08396946564885496,-4.236641221374046,-0.25190839694656486,0.0017917156219482422
-0.3223876953125,-0.2806396484375,0.7958984375,0.1984732824427481,-4.190839694656488,-0.04580152671755725,0.0017919540405273438
-0.3218994140625,-0.2855224609375,0.80419921875,0.05343511450381679,-4.206106870229007,-0.10687022900763359,0.0017924308776855469
-0.3309326171875,-0.2843017578125,0.801513671875,-0.007633587786259542,-4.091603053435114,0.0916030534351145,0.0017917156219482422
-0.3292236328125,-0.2781982421875,0.80419921875,-0.08396946564885496,-3.8931297709923665,0.2366412213740458,0.0017940998077392578
-0.3275146484375,-0.2847900390625,0.7958984375,-0.0916030534351145,-3.8473282442748094,0.2366412213740458,0.0018115043640136719
-0.3265380859375,-0.2843017578125,0.791015625,-0.15267175572519084,-3.763358778625954,0.4580152671755725,0.0017926692962646484
-0.3240966796875,-0.2830810546875,0.80078125,-0.21374045801526717,-3.801526717557252,0.4580152671755725,0.001791238784790039
-0.3260498046875,-0.2906494140625,0.791748046875,-0.42748091603053434,-3.6259541984732824,0.7251908396946565,0.0017917156219482422
-0.3218994140625,-0.2857666015625,0.787353515625,-0.3969465648854962,-3.5343511450381677,0.6946564885496184,0.00179290771484375
-0.3228759765625,-0.2847900390625,0.79150390625,-0.5572519083969466,-3.4198473282442747,0.5877862595419847,0.0017921924591064453
-0.3272705078125,-0.2857666015625,0.80224609375,-0.3893129770992366,-3.381679389312977,0.5114503816793893,0.0017924308776855469
-0.3255615234375,-0.2818603515625,0.79345703125,-0.5343511450381679,-3.366412213740458,0.4122137404580153,0.0017914772033691406
-0.3272705078125,-0.2874755859375,0.7978515625,-0.6335877862595419,-3.267175572519084,0.6641221374045801,0.00179290771484375
-0.3236083984375,-0.2864990234375,0.79736328125,-0.6259541984732825,-3.2748091603053435,0.5954198473282443,0.0017900466918945312
-0.3238525390625,-0.2852783203125,0.7978515625,-0.6106870229007634,-3.33587786259542,0.4961832061068702,0.0017921924591064453
-0.3250732421875,-0.2823486328125,0.7958984375,-0.7480916030534351,-3.16793893129771,0.5038167938931297,0.0017921924591064453
-0.3314208984375,-0.2818603515625,0.799560546875,-0.916030534351145,-3.145038167938931,0.3435114503816794,0.0017914772033691406
-0.3277587890625,-0.2847900390625,0.79638671875,-1.2061068702290076,-3.2977099236641223,0.22900763358778625,0.0017924308776855469
-0.3272705078125,-0.2857666015625,0.798828125,-1.015267175572519,-3.351145038167939,0.2824427480916031,0.0017921924591064453
-0.3304443359375,-0.2838134765625,0.799560546875,-0.8854961832061069,-3.33587786259542,0.03816793893129771,0.00179290771484375
-0.3260498046875,-0.2833251953125,0.801025390625,-1.0305343511450382,-3.450381679389313,0.0,0.0017905235290527344
-0.3228759765625,-0.2830810546875,0.791015625,-1.1068702290076335,-3.4885496183206106,-0.04580152671755725,0.0017917156219482422
-0.3236083984375,-0.2806396484375,0.80078125,-1.099236641221374,-3.2595419847328246,0.16030534351145037,0.0017919540405273438
-0.3233642578125,-0.2801513671875,0.80078125,-1.2595419847328244,-3.3969465648854964,-0.061068702290076333,0.0017921924591064453
-0.3282470703125,-0.2869873046875,0.79296875,-1.099236641221374,-3.3893129770992365,-0.1450381679389313,0.0017924308776855469
-0.3250732421875,-0.2828369140625,0.7978515625,-1.2595419847328244,-3.49618320610687,0.015267175572519083,0.0017926692962646484
-0.3245849609375,-0.2791748046875,0.797607421875,-1.3587786259541985,-3.66412213740458,-0.007633587786259542,0.0017926692962646484
-0.3258056640625,-0.2803955078125,0.794189453125,-1.3053435114503817,-3.2442748091603053,0.21374045801526717,0.001791238784790039
-0.3306884765625,-0.2801513671875,0.79638671875,-1.3129770992366412,-3.2519083969465647,-0.015267175572519083,0.0017924308776855469
-0.3284912109375,-0.2789306640625,0.7978515625,-1.2213740458015268,-3.3740458015267176,0.1297709923664122,0.0017921924591064453
-0.3223876953125,-0.2816162109375,0.798828125,-1.2366412213740459,-3.351145038167939,0.05343511450381679,0.0017921924591064453
-0.3250732421875,-0.2828369140625,0.791015625,-1.0763358778625953,-3.236641221374046,0.22137404580152673,0.0017910003662109375
-0.3270263671875,-0.2845458984375,0.795166015625,-1.0687022900763359,-3.2290076335877864,0.31297709923664124,0.0017926692962646484
-0.3258056640625,-0.2801513671875,0.796142578125,-1.0763358778625953,-3.16793893129771,0.549618320610687,0.0017919540405273438
-0.3221435546875,-0.2791748046875,0.795166015625,-1.0534351145038168,-3.122137404580153,0.4198473282442748,0.0017914772033691406
-0.3287353515625,-0.2801513671875,0.79345703125,-1.0076335877862594,-3.068702290076336,0.3053435114503817,0.0017917156219482422
-0.3226318359375,-0.2821044921875,0.80126953125,-0.8244274809160306,-3.2595419847328246,0.15267175572519084,0.0017917156219482422
-0.3258056640625,-0.2779541015625,0.789306640625,-0.7175572519083969,-3.2977099236641223,0.2748091603053435,0.00179290771484375
-0.3197021484375,-0.2813720703125,0.798095703125,-0.6335877862595419,-3.4198473282442747,0.3435114503816794,0.0017921924591064453
-0.3218994140625,-0.2828369140625,0.786865234375,-0.5954198473282443,-3.50381679389313,0.0916030534351145,0.0017926692962646484
-0.3170166015625,-0.2886962890625,0.783447265625,-0.7557251908396947,-3.5267175572519083,0.2900763358778626,0.0017914772033691406
-0.3189697265625,-0.2799072265625,0.790771484375,-0.6793893129770993,-3.4580152671755724,0.26717557251908397,0.0017926692962646484
-0.3148193359375,-0.2857666015625,0.788818359375,-0.6412213740458015,-3.6412213740458017,0.29770992366412213,0.0017917156219482422
-0.3204345703125,-0.2803955078125,0.78125,-0.732824427480916,-3.6106870229007635,0.15267175572519084,0.0017924308776855469
-0.3214111328125,-0.2757568359375,0.798828125,-0.6717557251908397,-3.6793893129770994,0.2748091603053435,0.0018684864044189453
-0.3231201171875,-0.2791748046875,0.795654296875,-0.6641221374045801,-3.7099236641221376,0.3053435114503817,0.001796722412109375
-0.3272705078125,-0.2796630859375,0.7890625,-0.6870229007633588,-3.6259541984732824,0.19083969465648856,0.00179290771484375
-0.3253173828125,-0.2828369140625,0.785888671875,-0.6870229007633588,-3.7938931297709924,0.3893129770992366,0.0017921924591064453
-0.3231201171875,-0.2791748046875,0.792724609375,-0.6641221374045801,-3.7938931297709924,0.20610687022900764,0.0017917156219482422
-0.3221435546875,-0.2828369140625,0.78271484375,-0.6564885496183206,-3.816793893129771,0.11450381679389313,0.0017914772033691406
-0.3182373046875,-0.2828369140625,0.785888671875,-0.732824427480916,-3.969465648854962,0.09923664122137404,0.00179290771484375
-0.3199462890625,-0.2850341796875,0.79638671875,-0.8244274809160306,-3.7709923664122136,0.015267175572519083,0.001791238784790039
-0.3211669921875,-0.2750244140625,0.794677734375,-0.9847328244274809,-3.6946564885496183,0.07633587786259542,0.0017933845520019531
-0.3157958984375,-0.2779541015625,0.78857421875,-0.9007633587786259,-3.618320610687023,0.10687022900763359,0.001791238784790039
-0.3250732421875,-0.2860107421875,0.792236328125,-0.9923664122137404,-3.564885496183206,0.06870229007633588,0.0017919540405273438
-0.3250732421875,-0.2808837890625,0.792724609375,-1.0610687022900764,-3.854961832061069,0.10687022900763359,0.0017919540405273438
-0.3182373046875,-0.2821044921875,0.7880859375,-0.9694656488549618,-3.7938931297709924,0.20610687022900764,0.0017921924591064453
-0.3155517578125,-0.2796630859375,0.795654296875,-0.8625954198473282,-3.7786259541984735,0.0916030534351145,0.0017917156219482422
-0.3197021484375,-0.2830810546875,0.78955078125,-0.9541984732824428,-3.7022900763358777,0.0,0.0017914772033691406
-0.3255615234375,-0.2813720703125,0.78662109375,-0.8320610687022901,-3.519083969465649,0.04580152671755725,0.001791238784790039
-0.3218994140625,-0.2811279296875,0.7890625,-0.7099236641221374,-3.7786259541984735,0.06870229007633588,0.001790761947631836
-0.3187255859375,-0.2791748046875,0.8037109375,-0.5038167938931297,-3.6946564885496183,0.17557251908396945,0.0017924308776855469
-0.3184814453125,-0.2789306640625,0.802001953125,-0.3053435114503817,-3.8931297709923665,0.10687022900763359,0.0017910003662109375
-0.3216552734375,-0.2762451171875,0.793701171875,-0.3816793893129771,-3.564885496183206,0.1450381679389313,0.0017919540405273438
-0.3223876953125,-0.2818603515625,0.783935546875,-0.366412213740458,-3.4656488549618323,0.0,0.0017919540405273438
-0.3258056640625,-0.2857666015625,0.78173828125,-0.2748091603053435,-3.8473282442748094,-0.1450381679389313,0.0018460750579833984
-0.3260498046875,-0.2828369140625,0.783935546875,-0.3816793893129771,-3.6717557251908395,0.15267175572519084,0.0032274723052978516
-0.3214111328125,-0.2816162109375,0.7822265625,-0.45038167938931295,-3.595419847328244,0.2366412213740458,0.0040471553802490234
-0.3277587890625,-0.2811279296875,0.787353515625,-0.7175572519083969,-3.4656488549618323,0.7251908396946565,0.0040280818939208984
-0.3277587890625,-0.2806396484375,0.796875,-0.45038167938931295,-3.519083969465649,0.7251908396946565,0.0040166378021240234
-0.3231201171875,-0.2843017578125,0.789306640625,-0.3282442748091603,-3.2595419847328246,0.9083969465648855,0.004010677337646484
-0.3258056640625,-0.2808837890625,0.78466796875,-0.13740458015267176,-3.4732824427480917,0.9923664122137404,0.004009723663330078
-0.3311767578125,-0.2784423828125,0.792724609375,-0.16030534351145037,-3.3893129770992365,1.1908396946564885,0.004008054733276367
-0.3294677734375,-0.2803955078125,0.796142578125,0.1297709923664122,-3.3587786259541983,1.0763358778625953,0.004009246826171875
-0.3314208984375,-0.2808837890625,0.79296875,0.3053435114503817,-3.5343511450381677,0.9465648854961832,0.0040094852447509766
-0.3223876953125,-0.2828369140625,0.786376953125,0.24427480916030533,-3.5343511450381677,0.6564885496183206,0.004007577896118164
-0.3304443359375,-0.2713623046875,0.792724609375,0.04580152671755725,-3.5114503816793894,0.648854961832061,0.0040073394775390625
-0.3348388671875,-0.2779541015625,0.7880859375,0.03816793893129771,-3.50381679389313,0.5725190839694656,0.004008769989013672
-0.3306884765625,-0.2784423828125,0.800048828125,-0.10687022900763359,-3.366412213740458,0.32061068702290074,0.004006862640380859
-0.3280029296875,-0.2786865234375,0.7939453125,-0.31297709923664124,-3.1603053435114505,0.2595419847328244,0.004026889801025391
-0.3280029296875,-0.2730712890625,0.802490234375,-0.2748091603053435,-3.2900763358778624,0.22900763358778625,0.00403141975402832
-0.3218994140625,-0.2777099609375,0.794677734375,-0.06870229007633588,-3.1526717557251906,0.030534351145038167,0.0040094852447509766
-0.3267822265625,-0.2742919921875,0.7958984375,-0.366412213740458,-3.122137404580153,0.24427480916030533,0.004009246826171875
-0.3179931640625,-0.2767333984375,0.791015625,-0.13740458015267176,-3.450381679389313,0.22137404580152673,0.00403285026550293
-0.3287353515625,-0.2772216796875,0.80615234375,-0.35877862595419846,-2.854961832061069,0.22137404580152673,0.004144430160522461
-0.3236083984375,-0.2786865234375,0.79931640625,-0.29770992366412213,-2.8931297709923665,0.20610687022900764,0.004099607467651367
-0.3221435546875,-0.2879638671875,0.79541015625,-0.3282442748091603,-2.885496183206107,0.07633587786259542,0.004285335540771484
-0.3250732421875,-0.2806396484375,0.80322265625,-0.22900763358778625,-2.633587786259542,0.22900763358778625,0.004030704498291016
-0.3238525390625,-0.2838134765625,0.795654296875,-0.31297709923664124,-2.6106870229007635,0.4580152671755725,0.003958225250244141
-0.3299560546875,-0.2862548828125,0.800048828125,-0.5572519083969466,-2.6259541984732824,0.3816793893129771,0.0019030570983886719
-0.3289794921875,-0.2906494140625,0.79248046875,-0.7480916030534351,-2.549618320610687,0.3282442748091603,0.0019009113311767578
-0.3262939453125,-0.2867431640625,0.791015625,-0.816793893129771,-2.3435114503816794,0.1984732824427481,0.0019168853759765625
-0.3277587890625,-0.2874755859375,0.800537109375,-1.0610687022900764,-2.2290076335877864,0.3282442748091603,0.002919912338256836
-0.3272705078125,-0.2869873046875,0.797607421875,-1.381679389312977,-2.3740458015267176,0.1450381679389313,0.004013776779174805
-0.3287353515625,-0.2860107421875,0.793212890625,-1.3435114503816794,-2.5572519083969465,0.022900763358778626,0.00400996208190918
-0.3302001953125,-0.2840576171875,0.79443359375,-1.5114503816793894,-2.6946564885496183,-0.1984732824427481,0.0040090084075927734
-0.3248291015625,-0.2808837890625,0.80419921875,-1.6641221374045803,-2.6259541984732824,-0.06870229007633588,0.004011631011962891
-0.3267822265625,-0.2806396484375,0.797607421875,-1.633587786259542,-2.7099236641221376,-0.007633587786259542,0.004013538360595703
-0.3262939453125,-0.2864990234375,0.79931640625,-1.6946564885496183,-2.7480916030534353,-0.030534351145038167,0.0040094852447509766
-0.3299560546875,-0.2823486328125,0.79345703125,-1.5419847328244274,-2.4122137404580153,0.1450381679389313,0.004009246826171875
-0.3250732421875,-0.2884521484375,0.798828125,-1.213740458015267,-2.801526717557252,0.1984732824427481,0.0040090084075927734
-0.3223876953125,-0.2840576171875,0.793701171875,-1.0534351145038168,-2.549618320610687,0.15267175572519084,0.004007816314697266
-0.3262939453125,-0.2803955078125,0.791259765625,-0.9312977099236641,-2.9236641221374047,-0.06870229007633588,0.004009723663330078
-0.3270263671875,-0.2816162109375,0.786865234375,-1.213740458015267,-2.786259541984733,-0.1984732824427481,0.0040094852447509766
-0.3223876953125,-0.2740478515625,0.786865234375,-1.16793893129771,-2.954198473282443,0.0,0.0040094852447509766
-0.3314208984375,-0.2767333984375,0.793701171875,-0.9541984732824428,-3.0229007633587788,-0.09923664122137404,0.0040051937103271484
-0.3216552734375,-0.2784423828125,0.7861328125,-0.9770992366412213,-2.931297709923664,-0.061068702290076333,0.004009723663330078
-0.3226318359375,-0.2767333984375,0.78369140625,-0.7709923664122137,-3.282442748091603,-0.12213740458015267,0.004008054733276367
-0.3197021484375,-0.2745361328125,0.8037109375,-0.4961832061068702,-3.3053435114503817,0.17557251908396945,0.0042819976806640625
-0.3194580078125,-0.2786865234375,0.779541015625,-0.7099236641221374,-3.5267175572519083,-0.030534351145038167,0.0040323734283447266
-0.3270263671875,-0.2799072265625,0.780517578125,-0.7404580152671756,-3.6259541984732824,0.015267175572519083,0.004010915756225586
-0.3289794921875,-0.2791748046875,0.780029296875,-0.7175572519083969,-3.6793893129770994,0.15267175572519084,0.0040111541748046875
-0.3214111328125,-0.2725830078125,0.789794921875,-0.5572519083969466,-3.4656488549618323,0.2366412213740458,0.004007577896118164
-0.3218994140625,-0.2857666015625,0.779296875,-0.7709923664122137,-3.618320610687023,-0.35877862595419846,0.004007577896118164
-0.3209228515625,-0.2821044921875,0.791015625,-0.7175572519083969,-3.984732824427481,0.0,0.00400853157043457
-0.3221435546875,-0.2755126953125,0.774169921875,-0.6030534351145038,-3.8625954198473282,-0.26717557251908397,0.004002809524536133
-0.3133544921875,-0.2745361328125,0.78369140625,-0.5801526717557252,-3.984732824427481,-0.2366412213740458,0.004012584686279297
-0.3189697265625,-0.2777099609375,0.7958984375,-0.42748091603053434,-4.190839694656488,0.030534351145038167,0.0040433406829833984
-0.3170166015625,-0.2772216796875,0.79345703125,-0.33587786259541985,-4.404580152671755,0.16793893129770993,0.004012346267700195
-0.3101806640625,-0.2791748046875,0.787841796875,-0.12213740458015267,-4.419847328244275,-0.007633587786259542,0.00400996208190918
-0.3197021484375,-0.2779541015625,0.787841796875,-0.15267175572519084,-4.473282442748092,0.3282442748091603,0.00400853157043457
-0.3167724609375,-0.2801513671875,0.790771484375,-0.03816793893129771,-4.213740458015267,0.29770992366412213,0.004008293151855469
-0.3165283203125,-0.2806396484375,0.79296875,0.022900763358778626,-4.33587786259542,0.3511450381679389,0.004006862640380859
-0.3126220703125,-0.2757568359375,0.787353515625,0.05343511450381679,-4.427480916030534,0.5038167938931297,0.004006862640380859
-0.3267822265625,-0.2755126953125,0.796630859375,0.007633587786259542,-4.358778625954199,0.5343511450381679,0.004006624221801758
-0.3218994140625,-0.2860107421875,0.78662109375,0.030534351145038167,-4.32824427480916,0.6793893129770993,0.004010200500488281
-0.3184814453125,-0.2803955078125,0.792236328125,-0.19083969465648856,-4.480916030534351,0.6870229007633588,0.0040056705474853516
-0.3270263671875,-0.2864990234375,0.791748046875,-0.13740458015267176,-4.4961832061068705,0.5038167938931297,0.004007577896118164
-0.3238525390625,-0.2806396484375,0.788330078125,-0.5114503816793893,-4.358778625954199,0.8396946564885496,0.004008769989013672
-0.3211669921875,-0.2816162109375,0.78759765625,-0.46564885496183206,-4.2748091603053435,0.7862595419847328,0.0040073394775390625
-0.3248291015625,-0.2786865234375,0.794189453125,-0.5725190839694656,-4.290076335877862,0.8702290076335878,0.004006862640380859
-0.3277587890625,-0.2781982421875,0.7890625,-0.6870229007633588,-4.641221374045801,0.4961832061068702,0.004012346267700195
-0.3302001953125,-0.2801513671875,0.798583984375,-0.7557251908396947,-4.458015267175573,0.3435114503816794,0.004004240036010742
-0.3226318359375,-0.2733154296875,0.799560546875,-0.3969465648854962,-4.419847328244275,0.2595419847328244,0.00400853157043457
-0.3258056640625,-0.2852783203125,0.79443359375,-0.4732824427480916,-4.404580152671755,0.22900763358778625,0.004006624221801758
-0.3321533203125,-0.2745361328125,0.7978515625,-0.5038167938931297,-4.595419847328245,0.06870229007633588,0.00400853157043457
-0.3321533203125,-0.2813720703125,0.797607421875,-0.48854961832061067,-4.358778625954199,0.10687022900763359,0.0041654109954833984
-0.3316650390625,-0.2742919921875,0.796142578125,-0.16793893129770993,-4.763358778625954,-0.022900763358778626,0.004075527191162109
-0.3363037109375,-0.2786865234375,0.799560546875,0.05343511450381679,-4.572519083969466,-0.030534351145038167,0.0040209293365478516
-0.3289794921875,-0.2796630859375,0.786376953125,0.06870229007633588,-4.67175572519084,-0.15267175572519084,0.004010200500488281
-0.3367919921875,-0.2806396484375,0.799072265625,0.2900763358778626,-4.366412213740458,-0.05343511450381679,0.0040340423583984375
-0.3272705078125,-0.2796630859375,0.794677734375,0.11450381679389313,-4.404580152671755,-0.08396946564885496,0.004015207290649414
-0.3358154296875,-0.2774658203125,0.793701171875,0.0,-4.259541984732825,0.1450381679389313,0.004015445709228516
-0.3304443359375,-0.2843017578125,0.788330078125,-0.0916030534351145,-4.366412213740458,0.015267175572519083,0.004008293151855469
-0.3245849609375,-0.2791748046875,0.80517578125,-0.35877862595419846,-4.030534351145038,0.04580152671755725,0.004007101058959961
-0.3355712890625,-0.2838134765625,0.79736328125,-0.42748091603053434,-3.801526717557252,-0.16030534351145037,0.004007577896118164
-0.3345947265625,-0.2833251953125,0.80078125,-0.3435114503816794,-3.8244274809160306,-0.08396946564885496,0.004125833511352539
-0.3323974609375,-0.2830810546875,0.805419921875,-0.48091603053435117,-4.106870229007634,-0.17557251908396945,0.0040149688720703125
-0.3363037109375,-0.2845458984375,0.79736328125,-0.5725190839694656,-4.152671755725191,-0.4580152671755725,0.004019498825073242
-0.3277587890625,-0.2811279296875,0.7861328125,-1.083969465648855,-4.229007633587786,-0.40458015267175573,0.0040476322174072266
-0.3302001953125,-0.2838134765625,0.7841796875,-0.9465648854961832,-4.297709923664122,-0.4198473282442748,0.0040111541748046875
-0.3204345703125,-0.2860107421875,0.795166015625,-1.2366412213740459,-4.3816793893129775,-0.183206106870229,0.004009723663330078
-0.3292236328125,-0.2833251953125,0.787353515625,-1.083969465648855,-3.946564885496183,-0.5801526717557252,0.004009723663330078
-0.3255615234375,-0.2843017578125,0.795654296875,-1.2671755725190839,-4.061068702290076,-0.3053435114503817,0.0040090084075927734
-0.3336181640625,-0.2840576171875,0.79248046875,-1.1603053435114503,-4.061068702290076,-0.4351145038167939,0.0040090084075927734
-0.3297119140625,-0.2894287109375,0.79931640625,-1.183206106870229,-4.099236641221374,-0.061068702290076333,0.00400853157043457
-0.3238525390625,-0.2803955078125,0.791748046875,-1.2366412213740459,-4.068702290076335,-0.10687022900763359,0.004008293151855469
-0.3248291015625,-0.2781982421875,0.80029296875,-1.1755725190839694,-4.0458015267175576,0.015267175572519083,0.004009723663330078
-0.3299560546875,-0.2835693359375,0.784912109375,-1.183206106870229,-3.877862595419847,-0.007633587786259542,0.004007577896118164
-0.3236083984375,-0.2857666015625,0.785400390625,-1.16793893129771,-4.183206106870229,0.15267175572519084,0.00400853157043457
-0.3289794921875,-0.2799072265625,0.7880859375,-1.1984732824427482,-4.1603053435114505,-0.2900763358778626,0.004007101058959961
-0.3277587890625,-0.2789306640625,0.792236328125,-1.213740458015267,-4.091603053435114,-0.48091603053435117,0.004008769989013672
-0.3250732421875,-0.2789306640625,0.7861328125,-1.0458015267175573,-4.022900763358779,-0.2595419847328244,0.004008054733276367
-0.3253173828125,-0.2835693359375,0.78759765625,-1.213740458015267,-3.969465648854962,-0.42748091603053434,0.004006862640380859
-0.3277587890625,-0.2845458984375,0.797607421875,-1.183206106870229,-3.7786259541984735,-0.3511450381679389,0.004006862640380859
-0.3240966796875,-0.2764892578125,0.798583984375,-1.099236641221374,-3.7480916030534353,-0.22900763358778625,0.004008293151855469
-0.3233642578125,-0.2772216796875,0.7958984375,-1.0534351145038168,-3.7709923664122136,-0.04580152671755725,0.004009723663330078
-0.3250732421875,-0.2801513671875,0.790283203125,-1.0,-3.480916030534351,-0.030534351145038167,0.004038095474243164
-0.3284912109375,-0.2789306640625,0.787109375,-1.0,-3.549618320610687,0.022900763358778626,0.0040073394775390625
-0.3211669921875,-0.2825927734375,0.79052734375,-1.0534351145038168,-3.7099236641221376,-0.007633587786259542,0.004003286361694336
-0.3221435546875,-0.2789306640625,0.791748046875,-1.1221374045801527,-3.885496183206107,-0.0916030534351145,0.004009246826171875
-0.3214111328125,-0.2835693359375,0.78369140625,-1.1374045801526718,-4.0,-0.3053435114503817,0.00400853157043457
-0.3218994140625,-0.2828369140625,0.7841796875,-1.099236641221374,-4.129770992366412,-0.13740458015267176,0.00426173210144043
-0.3236083984375,-0.2850341796875,0.792236328125,-1.1908396946564885,-4.129770992366412,-0.17557251908396945,0.004027366638183594
-0.3233642578125,-0.2821044921875,0.7841796875,-0.9083969465648855,-4.015267175572519,-0.22137404580152673,0.004012346267700195
-0.3214111328125,-0.2821044921875,0.788330078125,-0.9541984732824428,-4.404580152671755,-0.17557251908396945,0.004009723663330078
-0.3248291015625,-0.2791748046875,0.793212890625,-0.8396946564885496,-4.297709923664122,-0.17557251908396945,0.004008769989013672
-0.3201904296875,-0.2789306640625,0.78369140625,-0.8244274809160306,-4.1603053435114505,-0.061068702290076333,0.004009246826171875
-0.3172607421875,-0.2828369140625,0.790771484375,-0.8015267175572519,-4.450381679389313,-0.07633587786259542,0.0040090084075927734
-0.3214111328125,-0.2774658203125,0.7890625,-0.7480916030534351,-4.244274809160306,0.20610687022900764,0.00400853157043457
-0.3177490234375,-0.2794189453125,0.785400390625,-0.6946564885496184,-4.198473282442748,0.24427480916030533,0.004006147384643555
-0.3262939453125,-0.2816162109375,0.789794921875,-0.5114503816793893,-4.488549618320611,-0.1297709923664122,0.005318403244018555
-0.3270263671875,-0.2786865234375,0.791015625,-0.2748091603053435,-4.442748091603053,-0.1450381679389313,0.004018068313598633
-0.3250732421875,-0.2852783203125,0.798095703125,-0.16030534351145037,-4.572519083969466,0.07633587786259542,0.004036664962768555
-0.3258056640625,-0.2784423828125,0.79736328125,-0.13740458015267176,-4.465648854961832,0.1450381679389313,0.0040264129638671875
-0.3216552734375,-0.2862548828125,0.797607421875,-0.007633587786259542,-4.580152671755725,0.007633587786259542,0.004014015197753906
-0.3243408203125,-0.2830810546875,0.792724609375,-0.07633587786259542,-4.450381679389313,0.11450381679389313,0.0040111541748046875
-0.3238525390625,-0.2830810546875,0.802978515625,-0.5038167938931297,-4.396946564885496,0.26717557251908397,0.0040128231048583984
-0.3253173828125,-0.2808837890625,0.79443359375,-0.15267175572519084,-4.244274809160306,0.17557251908396945,0.004012584686279297
-0.3284912109375,-0.2833251953125,0.795654296875,-0.13740458015267176,-4.32824427480916,0.20610687022900764,0.004014015197753906
-0.3240966796875,-0.2835693359375,0.785400390625,-0.366412213740458,-4.183206106870229,0.022900763358778626,0.004010677337646484
-0.3289794921875,-0.2784423828125,0.798828125,-0.3969465648854962,-4.198473282442748,0.04580152671755725,0.004012584686279297
-0.3255615234375,-0.2806396484375,0.792236328125,-0.6183206106870229,-4.030534351145038,-0.1297709923664122,0.004050254821777344
-0.3258056640625,-0.2840576171875,0.79736328125,-0.6564885496183206,-4.122137404580153,0.10687022900763359,0.004010915756225586
-0.3226318359375,-0.2816162109375,0.799072265625,-0.3893129770992366,-3.9618320610687023,0.25190839694656486,0.004009246826171875
-0.3277587890625,-0.2860107421875,0.80712890625,-0.32061068702290074,-4.129770992366412,0.3969465648854962,0.004014492034912109
-0.3240966796875,-0.2835693359375,0.79345703125,-0.4732824427480916,-4.145038167938932,0.21374045801526717,0.004010677337646484
-0.3282470703125,-0.2879638671875,0.791015625,-0.6870229007633588,-3.9083969465648853,0.35877862595419846,0.00400853157043457
-0.3250732421875,-0.2833251953125,0.7822265625,-0.6870229007633588,-3.8396946564885495,0.007633587786259542,0.0040073394775390625
-0.3294677734375,-0.2845458984375,0.79345703125,-0.6030534351145038,-3.9618320610687023,0.11450381679389313,0.00400996208190918
-0.3265380859375,-0.2874755859375,0.783203125,-0.7022900763358778,-3.984732824427481,0.030534351145038167,0.004008054733276367
-0.3211669921875,-0.2845458984375,0.807373046875,-0.7709923664122137,-3.7709923664122136,-0.11450381679389313,0.004007816314697266
-0.3267822265625,-0.2869873046875,0.796630859375,-0.6870229007633588,-3.7022900763358777,0.1297709923664122,0.00400996208190918
-0.3240966796875,-0.2843017578125,0.80712890625,-0.4580152671755725,-3.564885496183206,0.3511450381679389,0.004977226257324219
-0.3214111328125,-0.2864990234375,0.803466796875,0.04580152671755725,-3.8244274809160306,0.3282442748091603,0.004385471343994141
-0.3199462890625,-0.2847900390625,0.795166015625,0.2824427480916031,-3.9236641221374047,0.2900763358778626,0.004174947738647461
-0.3260498046875,-0.2899169921875,0.797607421875,0.3893129770992366,-4.1603053435114505,0.22900763358778625,0.004008293151855469
-0.3223876953125,-0.2855224609375,0.796142578125,-0.04580152671755725,-4.267175572519084,0.1984732824427481,0.004024028778076172
-0.3236083984375,-0.2806396484375,0.78662109375,-0.25190839694656486,-4.213740458015267,0.26717557251908397,0.0040128231048583984
-0.3221435546875,-0.2818603515625,0.794677734375,-0.4961832061068702,-4.099236641221374,0.2824427480916031,0.0040395259857177734
-0.3265380859375,-0.2823486328125,0.8037109375,-0.6106870229007634,-4.145038167938932,0.31297709923664124,0.004160404205322266
-0.3255615234375,-0.2860107421875,0.78955078125,-0.6106870229007634,-3.9083969465648853,0.2900763358778626,0.004086017608642578
-0.3238525390625,-0.2796630859375,0.790771484375,-0.7175572519083969,-3.7786259541984735,0.3435114503816794,0.004102468490600586
-0.3209228515625,-0.2779541015625,0.79345703125,-0.7862595419847328,-3.8931297709923665,0.44274809160305345,0.0035789012908935547
-0.3187255859375,-0.2811279296875,0.789306640625,-0.6793893129770993,-3.9083969465648853,0.31297709923664124,0.001909494400024414
-0.3204345703125,-0.2811279296875,0.791259765625,-0.7175572519083969,-3.6946564885496183,0.5343511450381679,0.001894235610961914
-0.3267822265625,-0.2811279296875,0.791015625,-0.8473282442748091,-3.5572519083969465,0.6259541984732825,0.0019533634185791016
-0.3238525390625,-0.2803955078125,0.793701171875,-0.7709923664122137,-3.7099236641221376,0.22900763358778625,0.0019183158874511719
-0.3231201171875,-0.2801513671875,0.790283203125,-0.5725190839694656,-3.7709923664122136,0.366412213740458,0.003693819046020508
-0.3245849609375,-0.2789306640625,0.790283203125,-0.48091603053435117,-4.022900763358779,0.22137404580152673,0.004101753234863281
-0.3321533203125,-0.2803955078125,0.7890625,-0.42748091603053434,-4.091603053435114,0.20610687022900764,0.0036962032318115234
-0.3172607421875,-0.2816162109375,0.791259765625,-0.3511450381679389,-4.33587786259542,0.1984732824427481,0.0035963058471679688
-0.3148193359375,-0.2774658203125,0.799072265625,-0.21374045801526717,-4.412213740458015,0.022900763358778626,0.003609895706176758
-0.3267822265625,-0.2835693359375,0.79345703125,-0.24427480916030533,-4.488549618320611,0.007633587786259542,0.0036025047302246094
-0.3231201171875,-0.2735595703125,0.792724609375,-0.4580152671755725,-4.6183206106870225,0.05343511450381679,0.0036323070526123047
-0.3262939453125,-0.2860107421875,0.7919921875,-0.45038167938931295,-4.297709923664122,-0.0916030534351145,0.0036039352416992188
-0.3194580078125,-0.2821044921875,0.794677734375,-0.5572519083969466,-4.015267175572519,-0.007633587786259542,0.0035996437072753906
-0.3321533203125,-0.2823486328125,0.796875,-0.42748091603053434,-3.8396946564885495,-0.030534351145038167,0.0035991668701171875
-0.3270263671875,-0.2764892578125,0.783203125,-0.3282442748091603,-3.7557251908396947,-0.04580152671755725,0.003600597381591797
-0.3243408203125,-0.2825927734375,0.8046875,-0.2595419847328244,-3.854961832061069,-0.03816793893129771,0.0035974979400634766
-0.3250732421875,-0.2799072265625,0.788818359375,-0.37404580152671757,-3.6564885496183206,0.1984732824427481,0.003597259521484375
-0.3221435546875,-0.2799072265625,0.792724609375,-0.2824427480916031,-3.877862595419847,0.1984732824427481,0.003597736358642578
-0.3260498046875,-0.2872314453125,0.79296875,-0.3969465648854962,-3.633587786259542,0.13740458015267176,0.0035979747772216797
-0.3209228515625,-0.2838134765625,0.78466796875,-0.648854961832061,-3.7557251908396947,0.46564885496183206,0.003894329071044922
-0.3184814453125,-0.2864990234375,0.7880859375,-0.7099236641221374,-3.7404580152671754,0.2595419847328244,0.004178285598754883
-0.3218994140625,-0.2845458984375,0.795166015625,-0.9541984732824428,-4.083969465648855,0.2824427480916031,0.003904104232788086
-0.3197021484375,-0.2828369140625,0.79296875,-1.0610687022900764,-3.954198473282443,0.19083969465648856,0.003889322280883789
-0.3216552734375,-0.2803955078125,0.796142578125,-1.2366412213740459,-3.9923664122137406,0.13740458015267176,0.003614664077758789
-0.3236083984375,-0.2813720703125,0.791015625,-1.4198473282442747,-3.816793893129771,0.4198473282442748,0.0036509037017822266
-0.3250732421875,-0.2762451171875,0.792236328125,-1.4122137404580153,-3.8091603053435112,0.44274809160305345,0.003596067428588867
-0.3223876953125,-0.2811279296875,0.7939453125,-1.2366412213740459,-3.66412213740458,0.26717557251908397,0.0036072731018066406
-0.3299560546875,-0.2789306640625,0.790771484375,-1.2213740458015268,-3.732824427480916,0.6946564885496184,0.0035996437072753906
-0.3282470703125,-0.2821044921875,0.793212890625,-0.9618320610687023,-3.7022900763358777,0.6564885496183206,0.003599405288696289
-0.3240966796875,-0.2830810546875,0.7919921875,-0.8396946564885496,-3.7557251908396947,0.6335877862595419,0.003598451614379883
-0.3240966796875,-0.2762451171875,0.79443359375,-0.40458015267175573,-3.946564885496183,0.4122137404580153,0.0036013126373291016
-0.3255615234375,-0.2750244140625,0.78369140625,-0.2595419847328244,-4.137404580152672,0.3816793893129771,0.00360107421875
-0.3243408203125,-0.2738037109375,0.778564453125,-0.030534351145038167,-4.1603053435114505,0.31297709923664124,0.003620147705078125
-0.3267822265625,-0.2723388671875,0.796630859375,-0.25190839694656486,-4.091603053435114,0.22137404580152673,0.003602266311645508
-0.3245849609375,-0.2752685546875,0.795166015625,-0.25190839694656486,-4.175572519083969,0.22900763358778625,0.003595590591430664
-0.3287353515625,-0.2733154296875,0.7880859375,-0.2824427480916031,-4.0,0.22900763358778625,0.0035991668701171875
-0.3255615234375,-0.2762451171875,0.788330078125,-0.3893129770992366,-3.6412213740458017,0.3435114503816794,0.003595113754272461
-0.3223876953125,-0.2696533203125,0.794189453125,-0.3282442748091603,-3.3435114503816794,0.40458015267175573,0.0035970211029052734
-0.3253173828125,-0.2762451171875,0.793701171875,-0.5954198473282443,-3.404580152671756,0.061068702290076333,0.003599882125854492
-0.3304443359375,-0.2796630859375,0.789306640625,-0.7633587786259542,-3.3053435114503817,0.0,0.003598451614379883
-0.3209228515625,-0.2791748046875,0.79638671875,-0.549618320610687,-3.549618320610687,0.05343511450381679,0.003626108169555664
-0.3165283203125,-0.2772216796875,0.7958984375,-0.3893129770992366,-3.717557251908397,-0.3816793893129771,0.0037086009979248047
-0.3162841796875,-0.2725830078125,0.802490234375,-0.33587786259541985,-4.145038167938932,-0.44274809160305345,0.0036399364471435547
-0.3228759765625,-0.2821044921875,0.799560546875,-0.366412213740458,-4.175572519083969,-0.46564885496183206,0.0036034584045410156
-0.3221435546875,-0.2830810546875,0.79296875,-0.4351145038167939,-4.267175572519084,-0.4122137404580153,0.0035982131958007812
-0.3231201171875,-0.2772216796875,0.802001953125,-0.6412213740458015,-4.480916030534351,-0.22137404580152673,0.0036389827728271484
-0.3155517578125,-0.2789306640625,0.787841796875,-0.6641221374045801,-4.3816793893129775,-0.16030534351145037,0.003603696823120117
-0.3228759765625,-0.2843017578125,0.796630859375,-0.5267175572519084,-4.419847328244275,0.04580152671755725,0.0036020278930664062
-0.3216552734375,-0.2811279296875,0.795166015625,-0.5038167938931297,-4.282442748091603,-0.09923664122137404,0.003597736358642578
-0.3209228515625,-0.2857666015625,0.790283203125,-0.0916030534351145,-3.969465648854962,0.06870229007633588,0.003598451614379883
-0.3260498046875,-0.2845458984375,0.79638671875,-0.31297709923664124,-4.183206106870229,0.08396946564885496,0.0035991668701171875
-0.3236083984375,-0.2833251953125,0.807373046875,-0.32061068702290074,-4.3816793893129775,0.06870229007633588,0.003600597381591797
-0.3226318359375,-0.2803955078125,0.800537109375,-0.549618320610687,-4.229007633587786,0.2366412213740458,0.0035979747772216797
-0.3162841796875,-0.2816162109375,0.797607421875,-0.5038167938931297,-4.442748091603053,0.10687022900763359,0.003597259521484375
-0.3204345703125,-0.2830810546875,0.799560546875,-0.5572519083969466,-4.412213740458015,-0.20610687022900764,0.00360107421875
-0.3197021484375,-0.2835693359375,0.799560546875,-0.6564885496183206,-4.641221374045801,-0.17557251908396945,0.003596782684326172
-0.3258056640625,-0.2855224609375,0.809326171875,-0.6564885496183206,-4.511450381679389,-0.37404580152671757,0.0035963058471679688
-0.3309326171875,-0.2816162109375,0.800537109375,-0.5954198473282443,-4.641221374045801,-0.37404580152671757,0.0035991668701171875
-0.3319091796875,-0.2838134765625,0.79296875,-0.5343511450381679,-4.404580152671755,-0.549618320610687,0.003596782684326172
-0.3294677734375,-0.2847900390625,0.794677734375,-0.7251908396946565,-3.8625954198473282,-0.4351145038167939,0.0035965442657470703
-0.3321533203125,-0.2838134765625,0.79736328125,-0.9236641221374046,-3.9389312977099236,-0.2748091603053435,0.003600597381591797
-0.3353271484375,-0.2857666015625,0.802734375,-0.8015267175572519,-3.5267175572519083,-0.4961832061068702,0.004194736480712891
-0.3284912109375,-0.2872314453125,0.797607421875,-1.0305343511450382,-3.427480916030534,-0.2824427480916031,0.004037618637084961
-0.3304443359375,-0.2867431640625,0.800048828125,-0.8320610687022901,-3.6412213740458017,-0.40458015267175573,0.004193782806396484
-0.3282470703125,-0.2862548828125,0.7998046875,-0.46564885496183206,-3.5114503816793894,-0.2366412213740458,0.004845142364501953
-0.3243408203125,-0.2886962890625,0.798095703125,-0.5114503816793893,-4.015267175572519,-0.6870229007633588,0.004098415374755859
-0.3221435546875,-0.2867431640625,0.791748046875,-0.6793893129770993,-4.0458015267175576,-0.7480916030534351,0.004085540771484375
-0.3284912109375,-0.2862548828125,0.795654296875,-0.7709923664122137,-3.877862595419847,-0.6030534351145038,0.004126310348510742
-0.3226318359375,-0.2908935546875,0.7900390625,-0.7251908396946565,-3.7404580152671754,-0.3893129770992366,0.0040585994720458984
-0.3245849609375,-0.2857666015625,0.785888671875,-0.5954198473282443,-3.519083969465649,-0.40458015267175573,0.004242897033691406
-0.3199462890625,-0.2850341796875,0.791015625,-0.6412213740458015,-3.7480916030534353,0.030534351145038167,0.004326343536376953
-0.3214111328125,-0.2879638671875,0.79443359375,-0.8549618320610687,-3.572519083969466,0.06870229007633588,0.004202127456665039
-0.3172607421875,-0.2899169921875,0.787841796875,-1.1068702290076335,-3.3206106870229006,0.21374045801526717,0.004205942153930664
-0.3150634765625,-0.2847900390625,0.787841796875,-0.9312977099236641,-3.381679389312977,0.6259541984732825,0.004197359085083008
-0.3206787109375,-0.2843017578125,0.77734375,-0.9618320610687023,-3.4580152671755724,0.7022900763358778,0.0041561126708984375
-0.3116455078125,-0.2855224609375,0.786376953125,-0.8396946564885496,-3.4656488549618323,0.549618320610687,0.004210948944091797
-0.3094482421875,-0.2864990234375,0.783203125,-1.0076335877862594,-3.6259541984732824,0.7022900763358778,0.004175901412963867
-0.3170166015625,-0.2779541015625,0.782958984375,-1.0076335877862594,-3.7480916030534353,0.7862595419847328,0.004215717315673828
-0.3145751953125,-0.2808837890625,0.787841796875,-1.2366412213740459,-3.717557251908397,1.099236641221374,0.00421905517578125
-0.3145751953125,-0.2796630859375,0.80419921875,-1.099236641221374,-3.6259541984732824,0.9770992366412213,0.004163026809692383
-0.3184814453125,-0.2845458984375,0.794921875,-0.9541984732824428,-3.5343511450381677,0.9847328244274809,0.004180908203125
-0.3150634765625,-0.2786865234375,0.786865234375,-0.8625954198473282,-3.6717557251908395,0.7709923664122137,0.004191398620605469
-0.3238525390625,-0.2791748046875,0.786865234375,-0.6793893129770993,-3.7709923664122136,0.8854961832061069,0.004121541976928711
-0.3099365234375,-0.2835693359375,0.794921875,-0.5190839694656488,-3.9160305343511452,1.0381679389312977,0.004156351089477539
-0.3218994140625,-0.2786865234375,0.797607421875,-0.48091603053435117,-3.732824427480916,0.8549618320610687,0.004490852355957031
-0.3150634765625,-0.2684326171875,0.7998046875,-0.17557251908396945,-3.801526717557252,0.8015267175572519,0.0038192272186279297
-0.3177490234375,-0.2764892578125,0.79345703125,-0.1984732824427481,-4.129770992366412,0.6946564885496184,0.004275321960449219
-0.3121337890625,-0.2803955078125,0.798828125,-0.05343511450381679,-4.251908396946565,0.6335877862595419,0.002969980239868164
-0.3187255859375,-0.2755126953125,0.798583984375,-0.22900763358778625,-4.435114503816794,0.5343511450381679,0.0029163360595703125
-0.3189697265625,-0.2760009765625,0.785400390625,-0.07633587786259542,-4.572519083969466,0.6335877862595419,0.0028848648071289062
-0.3243408203125,-0.2803955078125,0.794189453125,-0.17557251908396945,-4.603053435114504,0.5725190839694656,0.0028541088104248047
-0.3255615234375,-0.2764892578125,0.784912109375,-0.3893129770992366,-4.412213740458015,0.366412213740458,0.0029151439666748047
-0.3270263671875,-0.2742919921875,0.792236328125,-0.3053435114503817,-4.564885496183206,0.5954198473282443,0.002906322479248047
-0.3267822265625,-0.2747802734375,0.798095703125,-0.3053435114503817,-4.145038167938932,0.5038167938931297,0.002983570098876953
-0.3240966796875,-0.2803955078125,0.802490234375,-0.24427480916030533,-4.183206106870229,0.4961832061068702,0.0030074119567871094
-0.3226318359375,-0.2774658203125,0.7958984375,-0.32061068702290074,-4.229007633587786,0.7175572519083969,0.002978086471557617
-0.3258056640625,-0.2825927734375,0.793212890625,-0.4198473282442748,-4.076335877862595,0.35877862595419846,0.0028808116912841797
-0.3250732421875,-0.2786865234375,0.79248046875,-0.2748091603053435,-3.9083969465648853,0.7938931297709924,0.0028390884399414062
-0.3184814453125,-0.2740478515625,0.797607421875,-0.2366412213740458,-4.099236641221374,0.648854961832061,0.003016948699951172
-0.3272705078125,-0.2747802734375,0.793701171875,-0.2824427480916031,-3.9770992366412212,0.4351145038167939,0.0027837753295898438
-0.3226318359375,-0.2764892578125,0.80322265625,-0.1297709923664122,-3.9923664122137406,0.42748091603053434,0.002773761749267578
-0.3240966796875,-0.2750244140625,0.801513671875,-0.31297709923664124,-4.106870229007634,0.42748091603053434,0.0029091835021972656
-0.3265380859375,-0.2777099609375,0.797119140625,-0.3969465648854962,-4.114503816793893,0.3511450381679389,0.002958536148071289
-0.3294677734375,-0.2730712890625,0.79833984375,-0.5114503816793893,-3.8931297709923665,0.4580152671755725,0.002955913543701172
-0.3275146484375,-0.2796630859375,0.80029296875,-0.5877862595419847,-3.900763358778626,0.3969465648854962,0.0030281543731689453
-0.3282470703125,-0.2755126953125,0.7939453125,-0.6793893129770993,-3.7786259541984735,0.3511450381679389,0.003270864486694336
-0.3284912109375,-0.2684326171875,0.798583984375,-0.8015267175572519,-3.717557251908397,0.3435114503816794,0.00328826904296875
-0.3311767578125,-0.2742919921875,0.799560546875,-0.8091603053435115,-3.6564885496183206,0.37404580152671757,0.002904653549194336
-0.3272705078125,-0.2728271484375,0.80322265625,-0.8778625954198473,-3.480916030534351,0.26717557251908397,0.0029320716857910156
-0.3262939453125,-0.2716064453125,0.802490234375,-0.8625954198473282,-3.687022900763359,0.0,0.0028667449951171875
-0.3358154296875,-0.2698974609375,0.80029296875,-0.6564885496183206,-3.633587786259542,-0.07633587786259542,0.0028655529022216797
-0.3314208984375,-0.2738037109375,0.798583984375,-0.9007633587786259,-3.618320610687023,-0.22900763358778625,0.002893686294555664
-0.3326416015625,-0.2691650390625,0.79931640625,-0.916030534351145,-3.519083969465649,-0.1450381679389313,0.0027761459350585938
-0.3253173828125,-0.2698974609375,0.792236328125,-0.8702290076335878,-3.4198473282442747,-0.21374045801526717,0.0029048919677734375
-0.3299560546875,-0.2747802734375,0.797119140625,-0.8396946564885496,-3.4885496183206106,-0.5038167938931297,0.0028159618377685547
-0.3238525390625,-0.2701416015625,0.79541015625,-0.8396946564885496,-3.49618320610687,-0.22137404580152673,0.002943754196166992
-0.3280029296875,-0.2742919921875,0.801025390625,-1.015267175572519,-3.404580152671756,-0.3969465648854962,0.0029265880584716797
-0.3255615234375,-0.2750244140625,0.797119140625,-1.0,-3.351145038167939,-0.3893129770992366,0.003033161163330078
-0.3211669921875,-0.2811279296875,0.801513671875,-0.8320610687022901,-3.4427480916030535,-0.40458015267175573,0.004044532775878906
-0.3319091796875,-0.2803955078125,0.795654296875,-0.8244274809160306,-3.6946564885496183,-0.5572519083969466,0.002577066421508789
-0.3184814453125,-0.2723388671875,0.794677734375,-0.7175572519083969,-3.6412213740458017,-0.5419847328244275,0.0025725364685058594
-0.3206787109375,-0.2803955078125,0.790283203125,-0.7022900763358778,-3.6946564885496183,-0.6717557251908397,0.0025691986083984375
-0.3162841796875,-0.2774658203125,0.7919921875,-0.7022900763358778,-3.7480916030534353,-0.6564885496183206,0.002568960189819336
-0.3216552734375,-0.2816162109375,0.789306640625,-0.6183206106870229,-3.6259541984732824,-0.6259541984732825,0.0025644302368164062
-0.3262939453125,-0.2862548828125,0.79345703125,-0.48854961832061067,-3.885496183206107,-0.5038167938931297,0.0025739669799804688
-0.3194580078125,-0.2813720703125,0.79052734375,-0.5877862595419847,-3.9236641221374047,-0.5877862595419847,0.0025682449340820312
-0.3177490234375,-0.2720947265625,0.790771484375,-0.45038167938931295,-4.099236641221374,-0.648854961832061,0.0025649070739746094
-0.3231201171875,-0.2816162109375,0.7919921875,-0.6106870229007634,-3.854961832061069,-0.33587786259541985,0.002565145492553711
-0.3216552734375,-0.2799072265625,0.79345703125,-0.7404580152671756,-3.6259541984732824,-0.19083969465648856,0.0025670528411865234
-0.3240966796875,-0.2864990234375,0.789306640625,-0.6335877862595419,-3.954198473282443,-0.1297709923664122,0.002681732177734375
-0.3245849609375,-0.2777099609375,0.788330078125,-0.5725190839694656,-3.900763358778626,-0.061068702290076333,0.002567768096923828
-0.3248291015625,-0.2796630859375,0.784423828125,-0.6259541984732825,-3.7022900763358777,-0.4732824427480916,0.002565145492553711
-0.3270263671875,-0.2777099609375,0.78369140625,-0.6259541984732825,-3.885496183206107,-0.2595419847328244,0.002563953399658203
-0.3258056640625,-0.2808837890625,0.792236328125,-0.6412213740458015,-3.5343511450381677,-0.16030534351145037,0.002569913864135742
-0.3333740234375,-0.2799072265625,0.7958984375,-0.6793893129770993,-3.6564885496183206,-0.5572519083969466,0.002566099166870117
-0.3277587890625,-0.2791748046875,0.794677734375,-0.7251908396946565,-3.4427480916030535,-0.3435114503816794,0.0025663375854492188
-0.3204345703125,-0.2779541015625,0.78857421875,-0.8854961832061069,-3.5267175572519083,-0.6335877862595419,0.0025734901428222656
-0.3197021484375,-0.2799072265625,0.79150390625,-0.7404580152671756,-3.3893129770992365,-0.5267175572519084,0.0025658607482910156
-0.3255615234375,-0.2784423828125,0.7919921875,-1.0381679389312977,-3.1908396946564888,-0.45038167938931295,0.002567291259765625
-0.3194580078125,-0.2823486328125,0.7978515625,-0.8625954198473282,-3.4122137404580153,-0.2366412213740458,0.0025691986083984375
-0.3262939453125,-0.2791748046875,0.804931640625,-0.7022900763358778,-3.366412213740458,-0.24427480916030533,0.0025641918182373047
-0.3275146484375,-0.2769775390625,0.7998046875,-0.7786259541984732,-3.3969465648854964,-0.13740458015267176,0.0025665760040283203
-0.3236083984375,-0.2825927734375,0.7900390625,-0.8549618320610687,-3.50381679389313,-0.16030534351145037,0.0025663375854492188
-0.3292236328125,-0.2835693359375,0.790283203125,-0.6030534351145038,-3.5877862595419847,0.04580152671755725,0.0026214122772216797
-0.3258056640625,-0.2821044921875,0.793212890625,-0.7175572519083969,-3.519083969465649,-0.183206106870229,0.002691030502319336
-0.3243408203125,-0.2811279296875,0.80419921875,-0.7862595419847328,-3.4885496183206106,-0.22900763358778625,0.0025794506072998047
-0.3248291015625,-0.2755126953125,0.79052734375,-0.7022900763358778,-3.5801526717557253,-0.22900763358778625,0.0026068687438964844
-0.3250732421875,-0.2740478515625,0.79296875,-0.816793893129771,-3.816793893129771,-0.17557251908396945,0.0025670528411865234
-0.3204345703125,-0.2777099609375,0.796142578125,-0.8625954198473282,-3.2061068702290076,-0.32061068702290074,0.002565145492553711
-0.3216552734375,-0.2772216796875,0.785888671875,-0.9618320610687023,-3.4122137404580153,-0.40458015267175573,0.0026404857635498047
-0.3289794921875,-0.2857666015625,0.79541015625,-0.9770992366412213,-3.198473282442748,-0.5038167938931297,0.00286865234375
-0.3250732421875,-0.2803955078125,0.78271484375,-1.1374045801526718,-3.2519083969465647,-0.366412213740458,0.0018448829650878906
-0.3245849609375,-0.2813720703125,0.790283203125,-1.2366412213740459,-3.312977099236641,-0.3435114503816794,0.0018453598022460938
-0.3319091796875,-0.2772216796875,0.7890625,-1.3129770992366412,-3.1374045801526718,-0.24427480916030533,0.0023398399353027344
-0.3253173828125,-0.2752685546875,0.79833984375,-1.2366412213740459,-3.015267175572519,-0.4122137404580153,0.002566099166870117
-0.3297119140625,-0.2806396484375,0.79345703125,-1.0534351145038168,-3.2977099236641223,-0.19083969465648856,0.0025641918182373047
-0.3148193359375,-0.2835693359375,0.796630859375,-0.9007633587786259,-3.572519083969466,-0.3511450381679389,0.0026350021362304688
-0.3199462890625,-0.2794189453125,0.793701171875,-0.33587786259541985,-3.9083969465648853,-0.45038167938931295,0.0029273033142089844
-0.3187255859375,-0.2786865234375,0.7939453125,-0.13740458015267176,-4.030534351145038,-0.5267175572519084,0.004006147384643555
-0.3184814453125,-0.2791748046875,0.792724609375,-0.48091603053435117,-4.198473282442748,-0.3511450381679389,0.004005908966064453
-0.3150634765625,-0.2799072265625,0.783447265625,-0.549618320610687,-4.190839694656488,-0.3282442748091603,0.004006862640380859
-0.3172607421875,-0.2872314453125,0.786865234375,-0.6641221374045801,-4.175572519083969,-0.061068702290076333,0.004003047943115234
-0.3177490234375,-0.2838134765625,0.781982421875,-0.7099236641221374,-3.83206106870229,-0.1297709923664122,0.0040018558502197266
-0.3160400390625,-0.2867431640625,0.791748046875,-0.6030534351145038,-4.0534351145038165,-0.16030534351145037,0.004037380218505859
-0.3167724609375,-0.2860107421875,0.794189453125,-0.6030534351145038,-3.885496183206107,0.08396946564885496,0.00403904914855957
-0.3187255859375,-0.2891845703125,0.78466796875,-0.7557251908396947,-4.0458015267175576,0.04580152671755725,0.004031181335449219
-0.3211669921875,-0.2801513671875,0.79931640625,-0.8778625954198473,-3.8473282442748094,0.0916030534351145,0.004046916961669922
-0.3201904296875,-0.2838134765625,0.790771484375,-0.4122137404580153,-3.877862595419847,0.22137404580152673,0.0040128231048583984
-0.3255615234375,-0.2840576171875,0.798583984375,-0.015267175572519083,-4.00763358778626,0.21374045801526717,0.00400853157043457
-0.3160400390625,-0.2813720703125,0.79345703125,-0.06870229007633588,-4.33587786259542,0.05343511450381679,0.0040051937103271484
-0.3231201171875,-0.2816162109375,0.792236328125,-0.22137404580152673,-4.312977099236641,-0.20610687022900764,0.004004955291748047
-0.3255615234375,-0.2823486328125,0.790283203125,-0.3816793893129771,-4.3816793893129775,-0.1450381679389313,0.004004001617431641
-0.3240966796875,-0.2825927734375,0.790771484375,-0.48091603053435117,-4.1603053435114505,-0.16793893129770993,0.00400543212890625
-0.3236083984375,-0.2825927734375,0.795654296875,-0.48854961832061067,-4.061068702290076,-0.09923664122137404,0.0040035247802734375
-0.3240966796875,-0.2845458984375,0.794921875,-0.4732824427480916,-3.801526717557252,0.09923664122137404,0.005320072174072266
-0.3160400390625,-0.2838134765625,0.802734375,-0.3893129770992366,-3.687022900763359,0.5190839694656488,0.004857778549194336
-0.3204345703125,-0.2867431640625,0.79833984375,-0.1297709923664122,-3.9236641221374047,0.6870229007633588,0.004286050796508789
-0.3211669921875,-0.2906494140625,0.800537109375,-0.007633587786259542,-4.297709923664122,0.5343511450381679,0.004068136215209961
-0.3255615234375,-0.2850341796875,0.79541015625,0.007633587786259542,-4.221374045801527,0.46564885496183206,0.004246711730957031
-0.3167724609375,-0.2872314453125,0.801025390625,-0.05343511450381679,-4.3816793893129775,0.6564885496183206,0.004251718521118164
-0.3167724609375,-0.2874755859375,0.799560546875,-0.4351145038167939,-4.465648854961832,0.3282442748091603,0.004101276397705078
-0.3204345703125,-0.2840576171875,0.798095703125,-0.48854961832061067,-4.595419847328245,0.29770992366412213,0.0041315555572509766
-0.3253173828125,-0.2886962890625,0.799072265625,-0.7480916030534351,-4.534351145038168,0.22900763358778625,0.003436565399169922
-0.3204345703125,-0.2860107421875,0.802734375,-0.7786259541984732,-4.282442748091603,0.24427480916030533,0.003373384475708008
-0.3275146484375,-0.2855224609375,0.794921875,-0.9007633587786259,-4.0458015267175576,0.3816793893129771,0.003388643264770508
-0.3267822265625,-0.2867431640625,0.79345703125,-0.8549618320610687,-3.984732824427481,0.22900763358778625,0.0034637451171875
-0.3214111328125,-0.2852783203125,0.805419921875,-0.8244274809160306,-3.9160305343511452,0.5114503816793893,0.003351926803588867
-0.3236083984375,-0.2821044921875,0.796875,-0.6564885496183206,-3.984732824427481,0.5190839694656488,0.003520488739013672
-0.3248291015625,-0.2779541015625,0.796630859375,-0.4122137404580153,-3.9618320610687023,0.5419847328244275,0.0034058094024658203
-0.3231201171875,-0.2716064453125,0.79052734375,-0.20610687022900764,-4.106870229007634,0.3053435114503817,0.0034329891204833984
-0.3184814453125,-0.2835693359375,0.798583984375,-0.22900763358778625,-3.854961832061069,0.4732824427480916,0.003419160842895508
-0.3248291015625,-0.2830810546875,0.793701171875,-0.15267175572519084,-4.1603053435114505,0.3969465648854962,0.0034193992614746094
-0.3280029296875,-0.2779541015625,0.804931640625,-0.37404580152671757,-3.786259541984733,0.6641221374045801,0.0034160614013671875
-0.3289794921875,-0.2762451171875,0.80029296875,-0.5343511450381679,-3.954198473282443,0.7404580152671756,0.0034089088439941406
-0.3248291015625,-0.2823486328125,0.79150390625,-0.6946564885496184,-3.8091603053435112,0.6717557251908397,0.0034401416778564453
-0.3284912109375,-0.2838134765625,0.792724609375,-0.7251908396946565,-3.6412213740458017,0.6946564885496184,0.003402233123779297
-0.3258056640625,-0.2789306640625,0.79052734375,-0.8625954198473282,-3.6259541984732824,0.5725190839694656,0.0033779144287109375
-0.3309326171875,-0.2813720703125,0.797119140625,-0.9236641221374046,-3.5267175572519083,0.26717557251908397,0.003418445587158203
-0.3272705078125,-0.2813720703125,0.793212890625,-0.8625954198473282,-3.5877862595419847,0.10687022900763359,0.003475666046142578
-0.3267822265625,-0.2730712890625,0.7978515625,-0.8625954198473282,-3.618320610687023,0.04580152671755725,0.003618478775024414
-0.3199462890625,-0.2755126953125,0.794921875,-0.916030534351145,-4.152671755725191,-0.48091603053435117,0.0034105777740478516
-0.3189697265625,-0.2762451171875,0.784423828125,-0.9847328244274809,-3.83206106870229,-0.22900763358778625,0.0034232139587402344
-0.3175048828125,-0.2764892578125,0.79638671875,-0.8778625954198473,-3.931297709923664,-0.22900763358778625,0.003459930419921875
-0.3255615234375,-0.2728271484375,0.789794921875,-0.8625954198473282,-3.7709923664122136,0.0916030534351145,0.0034437179565429688
-0.3211669921875,-0.2769775390625,0.789794921875,-1.0229007633587786,-3.7251908396946565,-0.015267175572519083,0.0034182071685791016
-0.3216552734375,-0.2813720703125,0.801513671875,-0.9847328244274809,-3.816793893129771,0.19083969465648856,0.0033605098724365234
-0.3182373046875,-0.2791748046875,0.798583984375,-0.9694656488549618,-3.480916030534351,0.33587786259541985,0.003426074981689453
-0.3262939453125,-0.2769775390625,0.791748046875,-0.7786259541984732,-3.717557251908397,0.25190839694656486,0.003526926040649414
-0.3192138671875,-0.2772216796875,0.80078125,-0.6335877862595419,-3.427480916030534,0.1450381679389313,0.0034945011138916016
-0.3182373046875,-0.2769775390625,0.7978515625,-0.4580152671755725,-3.49618320610687,0.11450381679389313,0.003394603729248047
-0.3201904296875,-0.2779541015625,0.793701171875,-0.48091603053435117,-3.633587786259542,0.04580152671755725,0.0033948421478271484
-0.3167724609375,-0.2781982421875,0.805419921875,-0.3282442748091603,-3.5343511450381677,0.022900763358778626,0.002862215042114258
-0.3177490234375,-0.2823486328125,0.794189453125,-0.40458015267175573,-3.7557251908396947,0.22137404580152673,0.0028612613677978516
-0.3165283203125,-0.2757568359375,0.8017578125,-0.6641221374045801,-3.946564885496183,0.16030534351145037,0.002785921096801758
-0.3109130859375,-0.2779541015625,0.79638671875,-0.6335877862595419,-3.9618320610687023,0.07633587786259542,0.005029439926147461
-0.3194580078125,-0.2789306640625,0.801513671875,-0.8396946564885496,-3.7786259541984735,0.07633587786259542,0.0030028820037841797
-0.3306884765625,-0.2794189453125,0.795166015625,-0.8778625954198473,-3.877862595419847,-0.1450381679389313,0.002892732620239258
-0.3199462890625,-0.2747802734375,0.79345703125,-0.732824427480916,-4.1603053435114505,-0.19083969465648856,0.002906322479248047
-0.3231201171875,-0.2742919921875,0.793212890625,-0.8702290076335878,-4.076335877862595,-0.21374045801526717,0.0028998851776123047
-0.3233642578125,-0.2738037109375,0.786865234375,-0.8015267175572519,-3.9160305343511452,-0.022900763358778626,0.0029544830322265625
-0.3209228515625,-0.2774658203125,0.793701171875,-0.7022900763358778,-3.732824427480916,0.007633587786259542,0.0029096603393554688
-0.3194580078125,-0.2796630859375,0.785400390625,-0.9236641221374046,-3.49618320610687,0.13740458015267176,0.002886056900024414
-0.3233642578125,-0.2764892578125,0.7861328125,-0.7175572519083969,-3.5572519083969465,0.21374045801526717,0.0028285980224609375
-0.3287353515625,-0.2799072265625,0.7890625,-0.6870229007633588,-3.4580152671755724,0.3511450381679389,0.0028901100158691406
-0.3216552734375,-0.2799072265625,0.790283203125,-0.6946564885496184,-3.7404580152671754,0.42748091603053434,0.0029168128967285156
-0.3194580078125,-0.2742919921875,0.794677734375,-0.6870229007633588,-3.435114503816794,0.3435114503816794,0.00299835205078125
-0.3258056640625,-0.2747802734375,0.789306640625,-0.5801526717557252,-3.946564885496183,0.3435114503816794,0.0028221607208251953
-0.3228759765625,-0.2791748046875,0.794677734375,-0.7022900763358778,-3.5572519083969465,0.21374045801526717,0.0028395652770996094
-0.3255615234375,-0.2738037109375,0.785888671875,-0.5954198473282443,-3.816793893129771,0.0,0.002959728240966797
-0.3280029296875,-0.2716064453125,0.79150390625,-0.7786259541984732,-3.9083969465648853,0.007633587786259542,0.0029382705688476562
-0.3206787109375,-0.2752685546875,0.79296875,-0.6870229007633588,-4.290076335877862,0.06870229007633588,0.00292205810546875
-0.3272705078125,-0.2760009765625,0.790771484375,-0.7709923664122137,-4.198473282442748,0.015267175572519083,0.002862691879272461
-0.3204345703125,-0.2789306640625,0.785888671875,-0.5725190839694656,-4.206106870229007,-0.08396946564885496,0.0027763843536376953
-0.3194580078125,-0.2757568359375,0.788818359375,-0.5419847328244275,-4.152671755725191,0.007633587786259542,0.0027647018432617188
-0.3240966796875,-0.2764892578125,0.798095703125,-0.4198473282442748,-4.374045801526718,0.06870229007633588,0.0027837753295898438
-0.3289794921875,-0.2720947265625,0.79248046875,-0.2748091603053435,-4.145038167938932,-0.03816793893129771,0.0027790069580078125
-0.3233642578125,-0.2767333984375,0.791015625,-0.19083969465648856,-4.015267175572519,0.16793893129770993,0.002770662307739258
-0.3226318359375,-0.2816162109375,0.789306640625,-0.04580152671755725,-4.00763358778626,0.22900763358778625,0.002769947052001953
-0.3272705078125,-0.2752685546875,0.78857421875,-0.22137404580152673,-3.8091603053435112,0.31297709923664124,0.0027685165405273438
-0.3221435546875,-0.2747802734375,0.790283203125,-0.10687022900763359,-3.6946564885496183,0.33587786259541985,0.0027680397033691406
-0.3209228515625,-0.2728271484375,0.785888671875,-0.1984732824427481,-3.366412213740458,0.48091603053435117,0.0027670860290527344
-0.3265380859375,-0.2750244140625,0.796142578125,0.03816793893129771,-3.4580152671755724,0.22900763358778625,0.0028607845306396484
-0.3206787109375,-0.2711181640625,0.79931640625,-0.12213740458015267,-3.687022900763359,0.08396946564885496,0.0029625892639160156
-0.3187255859375,-0.2757568359375,0.804931640625,0.061068702290076333,-3.687022900763359,0.13740458015267176,0.0028836727142333984
-0.3294677734375,-0.2779541015625,0.796875,-0.09923664122137404,-3.931297709923664,-0.12213740458015267,0.0028188228607177734
-0.3228759765625,-0.2789306640625,0.796875,-0.05343511450381679,-3.946564885496183,-0.03816793893129771,0.0028607845306396484
-0.3175048828125,-0.2847900390625,0.79931640625,-0.030534351145038167,-4.129770992366412,-0.1984732824427481,0.0025634765625
-0.3126220703125,-0.2760009765625,0.791259765625,-0.1297709923664122,-4.244274809160306,-0.3816793893129771,0.0018591880798339844
-0.3184814453125,-0.2852783203125,0.793701171875,-0.21374045801526717,-4.595419847328245,-0.32061068702290074,0.001837015151977539
-0.3126220703125,-0.2823486328125,0.792236328125,-0.3053435114503817,-4.175572519083969,-0.45038167938931295,0.0018544197082519531
-0.3194580078125,-0.2879638671875,0.7919921875,-0.5114503816793893,-4.343511450381679,-0.3282442748091603,0.0018358230590820312
-0.3138427734375,-0.2811279296875,0.79443359375,-0.29770992366412213,-4.229007633587786,-0.21374045801526717,0.0018389225006103516
-0.3175048828125,-0.2840576171875,0.796875,-0.45038167938931295,-4.1603053435114505,-0.2824427480916031,0.0018343925476074219
-0.3209228515625,-0.2833251953125,0.7978515625,-0.48854961832061067,-4.061068702290076,-0.1984732824427481,0.0018362998962402344
-0.3192138671875,-0.2838134765625,0.7919921875,-0.6335877862595419,-4.015267175572519,-0.16793893129770993,0.0018379688262939453
-0.3175048828125,-0.2845458984375,0.799560546875,-0.4961832061068702,-4.114503816793893,0.030534351145038167,0.002029895782470703
-0.3216552734375,-0.2828369140625,0.79248046875,-0.4122137404580153,-4.213740458015267,-0.03816793893129771,0.0027627944946289062
-0.3192138671875,-0.2850341796875,0.799560546875,-0.40458015267175573,-4.068702290076335,0.015267175572519083,0.002775907516479492
-0.3197021484375,-0.2791748046875,0.7978515625,-0.2900763358778626,-4.374045801526718,0.1297709923664122,0.0027687549591064453
-0.3155517578125,-0.2791748046875,0.79833984375,-0.20610687022900764,-4.358778625954199,0.21374045801526717,0.002764463424682617
-0.3240966796875,-0.2801513671875,0.796875,-0.17557251908396945,-4.145038167938932,0.04580152671755725,0.0027666091918945312
-0.3236083984375,-0.2838134765625,0.8046875,-0.17557251908396945,-4.473282442748092,0.015267175572519083,0.002766847610473633
-0.3223876953125,-0.2813720703125,0.797119140625,-0.21374045801526717,-4.4961832061068705,0.19083969465648856,0.0027642250061035156
-0.3248291015625,-0.2823486328125,0.800048828125,-0.17557251908396945,-4.480916030534351,0.030534351145038167,0.0027666091918945312
-0.3204345703125,-0.2821044921875,0.807861328125,-0.31297709923664124,-4.648854961832061,0.19083969465648856,0.0027670860290527344
-0.3253173828125,-0.2857666015625,0.8046875,-0.4198473282442748,-4.702290076335878,-0.12213740458015267,0.002765178680419922
-0.3355712890625,-0.2855224609375,0.79150390625,-0.48091603053435117,-4.488549618320611,-0.0916030534351145,0.0027647018432617188
-0.3292236328125,-0.2850341796875,0.801025390625,-0.5267175572519084,-4.641221374045801,-0.07633587786259542,0.0032913684844970703
-0.3331298828125,-0.2830810546875,0.803955078125,-0.5954198473282443,-4.33587786259542,-0.37404580152671757,0.002780437469482422
-0.3343505859375,-0.2845458984375,0.803955078125,-0.6564885496183206,-4.190839694656488,-0.17557251908396945,0.002768278121948242
-0.3311767578125,-0.2860107421875,0.78955078125,-0.7251908396946565,-3.732824427480916,-0.2595419847328244,0.002765655517578125
-0.3245849609375,-0.2850341796875,0.7958984375,-0.8396946564885496,-3.9618320610687023,-0.3053435114503817,0.0027663707733154297
-0.3270263671875,-0.2833251953125,0.798095703125,-0.9007633587786259,-3.854961832061069,-0.183206106870229,0.002796173095703125
-0.3350830078125,-0.2884521484375,0.798583984375,-0.8854961832061069,-3.4885496183206106,-0.20610687022900764,0.0027747154235839844
-0.3275146484375,-0.2867431640625,0.801513671875,-1.0,-3.2061068702290076,-0.13740458015267176,0.0027642250061035156
-0.3267822265625,-0.2857666015625,0.804443359375,-0.8625954198473282,-3.5114503816793894,-0.11450381679389313,0.0027670860290527344
-0.3277587890625,-0.2872314453125,0.80029296875,-0.8778625954198473,-3.3893129770992365,-0.07633587786259542,0.0027649402618408203
-0.3323974609375,-0.2845458984375,0.80224609375,-0.9083969465648855,-3.351145038167939,-0.20610687022900764,0.002766132354736328
-0.3262939453125,-0.2833251953125,0.8037109375,-1.213740458015267,-3.2748091603053435,0.08396946564885496,0.0029571056365966797
-0.3277587890625,-0.2821044921875,0.797607421875,-1.1984732824427482,-3.16793893129771,0.22137404580152673,0.0027761459350585938
-0.3333740234375,-0.2872314453125,0.80908203125,-1.1603053435114503,-3.0763358778625953,-0.07633587786259542,0.0028066635131835938
-0.3299560546875,-0.2877197265625,0.794189453125,-1.0229007633587786,-3.015267175572519,0.0916030534351145,0.0027763843536376953
-0.3255615234375,-0.2855224609375,0.788818359375,-1.1908396946564885,-3.198473282442748,-0.015267175572519083,0.002849102020263672
-0.3248291015625,-0.2896728515625,0.78955078125,-1.0,-3.282442748091603,-0.06870229007633588,0.002851247787475586
-0.3223876953125,-0.2847900390625,0.799072265625,-1.0534351145038168,-3.2213740458015265,-0.2900763358778626,0.0031337738037109375
-0.3187255859375,-0.2862548828125,0.7998046875,-1.2290076335877862,-3.16793893129771,-0.3816793893129771,0.004015922546386719
-0.3160400390625,-0.2825927734375,0.797607421875,-1.1526717557251909,-3.5114503816793894,0.015267175572519083,0.004010438919067383
-0.3172607421875,-0.2833251953125,0.796142578125,-1.4732824427480915,-3.6106870229007635,-0.26717557251908397,0.004009723663330078
-0.3157958984375,-0.2789306640625,0.791259765625,-1.5267175572519085,-3.572519083969466,0.12213740458015267,0.004010438919067383
-0.3157958984375,-0.2764892578125,0.793701171875,-1.2900763358778626,-3.4732824427480917,0.16793893129770993,0.004009246826171875
-0.3204345703125,-0.2760009765625,0.79052734375,-1.1374045801526718,-3.450381679389313,-0.061068702290076333,0.0040094852447509766
-0.3228759765625,-0.2755126953125,0.792724609375,-1.0,-3.564885496183206,0.08396946564885496,0.004009246826171875
-0.3214111328125,-0.2760009765625,0.796630859375,-1.0534351145038168,-3.4885496183206106,-0.05343511450381679,0.0040051937103271484
-0.3170166015625,-0.2818603515625,0.78564453125,-0.9236641221374046,-3.50381679389313,0.4122137404580153,0.004009246826171875
-0.3150634765625,-0.2789306640625,0.788818359375,-0.7938931297709924,-3.404580152671756,0.22137404580152673,0.004007577896118164
-0.3111572265625,-0.2752685546875,0.78125,-0.9923664122137404,-3.5114503816793894,0.6564885496183206,0.00400996208190918
-0.3162841796875,-0.2738037109375,0.78955078125,-0.9770992366412213,-3.7480916030534353,0.6106870229007634,0.0040056705474853516
-0.3114013671875,-0.2828369140625,0.7978515625,-1.1374045801526718,-3.7022900763358777,0.8396946564885496,0.004009246826171875
-0.3099365234375,-0.2813720703125,0.789794921875,-0.7404580152671756,-3.763358778625954,0.6641221374045801,0.004008769989013672
-0.3096923828125,-0.2740478515625,0.781982421875,-0.5877862595419847,-3.5267175572519083,0.8778625954198473,0.0040090084075927734
-0.3128662109375,-0.2796630859375,0.7919921875,-0.5190839694656488,-3.9389312977099236,0.6717557251908397,0.00400853157043457
-0.3182373046875,-0.2799072265625,0.787109375,-0.24427480916030533,-3.9160305343511452,0.6335877862595419,0.00400996208190918
-0.3165283203125,-0.2750244140625,0.791259765625,-0.19083969465648856,-4.1603053435114505,0.5648854961832062,0.004009246826171875
-0.3111572265625,-0.2796630859375,0.79443359375,0.0916030534351145,-4.1603053435114505,0.7938931297709924,0.004010200500488281
-0.3145751953125,-0.2774658203125,0.792236328125,0.0,-4.145038167938932,0.6641221374045801,0.004006862640380859
-0.3201904296875,-0.2735595703125,0.796142578125,0.061068702290076333,-4.244274809160306,0.6183206106870229,0.0040051937103271484
-0.3218994140625,-0.2789306640625,0.7900390625,0.015267175572519083,-4.3816793893129775,0.8091603053435115,0.004008293151855469
-0.3121337890625,-0.2738037109375,0.79296875,0.1297709923664122,-4.183206106870229,0.9465648854961832,0.004005908966064453
-0.3192138671875,-0.2730712890625,0.791259765625,0.015267175572519083,-4.580152671755725,1.0763358778625953,0.004008054733276367
-0.3214111328125,-0.2796630859375,0.798828125,-0.04580152671755725,-4.488549618320611,0.9618320610687023,0.004037141799926758
-0.3248291015625,-0.2728271484375,0.806396484375,-0.05343511450381679,-4.549618320610687,0.9618320610687023,0.0040073394775390625
-0.3336181640625,-0.2730712890625,0.799560546875,-0.0916030534351145,-4.572519083969466,0.6946564885496184,0.004009246826171875
-0.3289794921875,-0.2725830078125,0.802490234375,-0.07633587786259542,-4.748091603053435,0.5725190839694656,0.004006624221801758
-0.3262939453125,-0.2801513671875,0.798583984375,-0.0916030534351145,-4.358778625954199,0.5038167938931297,0.0040073394775390625
-0.3326416015625,-0.2764892578125,0.7900390625,-0.1450381679389313,-4.229007633587786,0.3435114503816794,0.004029035568237305
-0.3245849609375,-0.2808837890625,0.7978515625,-0.21374045801526717,-4.015267175572519,0.21374045801526717,0.004007816314697266
-0.3255615234375,-0.2760009765625,0.80419921875,-0.26717557251908397,-4.0458015267175576,0.2900763358778626,0.004008293151855469
-0.3319091796875,-0.2742919921875,0.7978515625,-0.31297709923664124,-3.954198473282443,0.4198473282442748,0.004008054733276367
-0.3321533203125,-0.2784423828125,0.794677734375,-0.37404580152671757,-3.931297709923664,0.4732824427480916,0.004008054733276367
-0.3345947265625,-0.2786865234375,0.798583984375,-0.5801526717557252,-3.282442748091603,0.7022900763358778,0.00400996208190918
-0.3267822265625,-0.2789306640625,0.8056640625,-0.549618320610687,-3.2977099236641223,0.5725190839694656,0.0040073394775390625
-0.3385009765625,-0.2786865234375,0.799560546875,-0.48854961832061067,-3.1297709923664123,0.5190839694656488,0.0040073394775390625
-0.3321533203125,-0.2784423828125,0.797607421875,-0.45038167938931295,-3.1526717557251906,0.26717557251908397,0.004006385803222656
-0.3284912109375,-0.2791748046875,0.807861328125,-0.6946564885496184,-2.984732824427481,0.17557251908396945,0.004006624221801758
-0.3304443359375,-0.2811279296875,0.8046875,-0.6641221374045801,-2.969465648854962,-0.05343511450381679,0.0040090084075927734
-0.3299560546875,-0.2796630859375,0.805419921875,-1.015267175572519,-3.068702290076336,-0.12213740458015267,0.004007816314697266
-0.3297119140625,-0.2801513671875,0.8037109375,-1.2061068702290076,-3.2061068702290076,-0.183206106870229,0.0040073394775390625
-0.3338623046875,-0.2789306640625,0.79833984375,-1.5038167938931297,-3.068702290076336,-0.21374045801526717,0.004007101058959961
-0.3216552734375,-0.2779541015625,0.797607421875,-1.5114503816793894,-3.198473282442748,-0.33587786259541985,0.0040073394775390625
-0.3226318359375,-0.2791748046875,0.793701171875,-1.4732824427480915,-3.2595419847328246,-0.4580152671755725,0.0040090084075927734
-0.3204345703125,-0.2833251953125,0.802490234375,-1.3969465648854962,-3.33587786259542,-0.4351145038167939,0.004008293151855469
-0.3228759765625,-0.2791748046875,0.797607421875,-1.3969465648854962,-3.4885496183206106,-0.5038167938931297,0.004015445709228516
-0.3214111328125,-0.2738037109375,0.802001953125,-1.1603053435114503,-3.5267175572519083,-0.6641221374045801,0.004151821136474609
-0.3206787109375,-0.2811279296875,0.803466796875,-1.1297709923664123,-3.519083969465649,-0.48091603053435117,0.004106044769287109
-0.3206787109375,-0.2760009765625,0.80078125,-0.916030534351145,-3.50381679389313,-0.48854961832061067,0.0041196346282958984
-0.3243408203125,-0.2735595703125,0.796142578125,-0.8702290076335878,-3.8244274809160306,-0.5648854961832062,0.004160881042480469
-0.3218994140625,-0.2769775390625,0.802734375,-1.015267175572519,-3.5572519083969465,-0.44274809160305345,0.0028290748596191406
-0.3216552734375,-0.2791748046875,0.797119140625,-0.9923664122137404,-3.595419847328244,-0.22900763358778625,0.001901865005493164
-0.3236083984375,-0.2774658203125,0.793212890625,-0.9770992366412213,-3.6259541984732824,-0.24427480916030533,0.0019049644470214844
-0.3248291015625,-0.2730712890625,0.79345703125,-1.2290076335877862,-3.648854961832061,-0.08396946564885496,0.001939535140991211
-0.3179931640625,-0.2784423828125,0.79541015625,-1.083969465648855,-3.2977099236641223,-0.09923664122137404,0.0019001960754394531
-0.3216552734375,-0.2779541015625,0.79541015625,-1.0610687022900764,-3.5877862595419847,0.0,0.0021033287048339844
-0.3214111328125,-0.2750244140625,0.79296875,-1.099236641221374,-3.5419847328244276,0.007633587786259542,0.004283428192138672
-0.3177490234375,-0.2779541015625,0.7841796875,-1.0534351145038168,-3.381679389312977,-0.06870229007633588,0.004037141799926758
-0.3175048828125,-0.2774658203125,0.78564453125,-0.8244274809160306,-3.435114503816794,-0.06870229007633588,0.0040130615234375
-0.3194580078125,-0.2735595703125,0.7958984375,-0.6641221374045801,-3.427480916030534,-0.25190839694656486,0.0040130615234375
-0.3255615234375,-0.2762451171875,0.79443359375,-0.6717557251908397,-3.3587786259541983,-0.16030534351145037,0.004007577896118164
-0.3189697265625,-0.2796630859375,0.78759765625,-0.8015267175572519,-3.3969465648854964,-0.22900763358778625,0.004103422164916992
-0.3226318359375,-0.2750244140625,0.787841796875,-0.6030534351145038,-3.5343511450381677,-0.22900763358778625,0.004013776779174805
-0.3209228515625,-0.2701416015625,0.800537109375,-0.5572519083969466,-3.732824427480916,-0.22900763358778625,0.004010438919067383
-0.3218994140625,-0.2742919921875,0.7978515625,-0.48854961832061067,-3.6717557251908395,-0.22900763358778625,0.00400853157043457
-0.3260498046875,-0.2738037109375,0.795654296875,-0.5954198473282443,-3.83206106870229,-0.16030534351145037,0.004012107849121094
-0.3267822265625,-0.2735595703125,0.7919921875,-0.8244274809160306,-3.687022900763359,-0.2824427480916031,0.0040090084075927734
-0.3233642578125,-0.2811279296875,0.791748046875,-0.9465648854961832,-3.763358778625954,-0.3511450381679389,0.00400853157043457
-0.3199462890625,-0.2781982421875,0.7861328125,-0.9770992366412213,-3.450381679389313,-0.16030534351145037,0.0040111541748046875
-0.3211669921875,-0.2784423828125,0.791748046875,-0.8854961832061069,-3.5419847328244276,-0.22900763358778625,0.004007101058959961
-0.3172607421875,-0.2786865234375,0.790771484375,-0.6564885496183206,-3.435114503816794,-0.061068702290076333,0.0040090084075927734
-0.3253173828125,-0.2845458984375,0.78955078125,-0.6793893129770993,-3.519083969465649,-0.015267175572519083,0.004009246826171875
-0.3177490234375,-0.2855224609375,0.80419921875,-0.816793893129771,-3.5572519083969465,-0.12213740458015267,0.004008769989013672
-0.3236083984375,-0.2818603515625,0.792236328125,-1.0687022900763359,-3.595419847328244,-0.35877862595419846,0.0040132999420166016
-0.3197021484375,-0.2789306640625,0.786865234375,-1.183206106870229,-3.6793893129770994,-0.24427480916030533,0.00401616096496582
-0.3165283203125,-0.2835693359375,0.793701171875,-1.1526717557251909,-3.8702290076335877,-0.2824427480916031,0.004011392593383789
-0.3201904296875,-0.2840576171875,0.79150390625,-1.0763358778625953,-3.8091603053435112,-0.183206106870229,0.00405120849609375
-0.3128662109375,-0.2789306640625,0.792236328125,-0.9312977099236641,-4.022900763358779,0.09923664122137404,0.004009723663330078
-0.3145751953125,-0.2781982421875,0.79052734375,-0.6106870229007634,-4.152671755725191,0.09923664122137404,0.004010915756225586
-0.3187255859375,-0.2755126953125,0.788818359375,-0.2748091603053435,-3.9389312977099236,0.04580152671755725,0.004007577896118164
-0.3218994140625,-0.2796630859375,0.7890625,-0.366412213740458,-4.00763358778626,0.3282442748091603,0.0040132999420166016
-0.3199462890625,-0.2789306640625,0.797607421875,-0.16793893129770993,-4.114503816793893,0.24427480916030533,0.00400543212890625
-0.3172607421875,-0.2784423828125,0.7919921875,-0.007633587786259542,-4.1603053435114505,0.13740458015267176,0.004008769989013672
-0.3140869140625,-0.2806396484375,0.79052734375,0.022900763358778626,-4.030534351145038,0.3053435114503817,0.004009246826171875
-0.3167724609375,-0.2835693359375,0.79931640625,0.03816793893129771,-4.099236641221374,0.08396946564885496,0.004008054733276367
-0.3228759765625,-0.2838134765625,0.8095703125,-0.05343511450381679,-4.236641221374046,0.16030534351145037,0.004006147384643555
-0.3201904296875,-0.2799072265625,0.795654296875,-0.022900763358778626,-4.145038167938932,0.17557251908396945,0.004006624221801758
-0.3172607421875,-0.2777099609375,0.79345703125,-0.015267175572519083,-4.465648854961832,0.15267175572519084,0.0040090084075927734
-0.3214111328125,-0.2830810546875,0.801513671875,-0.16030534351145037,-4.213740458015267,0.32061068702290074,0.004006624221801758
-0.3167724609375,-0.2750244140625,0.797119140625,-0.183206106870229,-4.022900763358779,0.3511450381679389,0.004015684127807617
-0.3170166015625,-0.2808837890625,0.802978515625,-0.10687022900763359,-4.244274809160306,0.29770992366412213,0.0040073394775390625
-0.3187255859375,-0.2806396484375,0.79296875,-0.21374045801526717,-4.198473282442748,0.3969465648854962,0.004007101058959961
-0.3265380859375,-0.2762451171875,0.78955078125,-0.183206106870229,-4.343511450381679,0.37404580152671757,0.00400996208190918
-0.3199462890625,-0.2816162109375,0.796142578125,-0.25190839694656486,-4.030534351145038,0.2824427480916031,0.004025459289550781
-0.3216552734375,-0.2874755859375,0.799072265625,-0.3053435114503817,-3.984732824427481,0.4198473282442748,0.004008054733276367
-0.3240966796875,-0.2811279296875,0.795654296875,-0.3816793893129771,-3.9083969465648853,0.2366412213740458,0.004007101058959961
-0.3262939453125,-0.2816162109375,0.8017578125,-0.44274809160305345,-4.076335877862595,0.3969465648854962,0.004011392593383789
-0.3250732421875,-0.2764892578125,0.803955078125,-0.7938931297709924,-3.9770992366412212,0.48091603053435117,0.0040090084075927734
-0.3194580078125,-0.2811279296875,0.8017578125,-0.9770992366412213,-4.0,0.45038167938931295,0.004017353057861328
-0.3258056640625,-0.2850341796875,0.795654296875,-1.3740458015267176,-3.9160305343511452,0.4122137404580153,0.004004240036010742
-0.3280029296875,-0.2803955078125,0.804931640625,-1.3282442748091603,-3.6793893129770994,0.5190839694656488,0.004008054733276367
-0.3338623046875,-0.2747802734375,0.803955078125,-1.3511450381679388,-3.2213740458015265,0.549618320610687,0.004041194915771484
-0.3402099609375,-0.2740478515625,0.81201171875,-1.1450381679389312,-3.3435114503816794,0.31297709923664124,0.004007101058959961
-0.3338623046875,-0.2662353515625,0.801025390625,-1.099236641221374,-3.282442748091603,0.25190839694656486,0.004006862640380859
-0.3397216796875,-0.2640380859375,0.808349609375,-1.1450381679389312,-3.1297709923664123,-0.3511450381679389,0.0040056705474853516
-0.3416748046875,-0.2720947265625,0.80517578125,-1.0381679389312977,-2.900763358778626,-0.9923664122137404,0.004013538360595703
-0.3367919921875,-0.2703857421875,0.804443359375,-0.9083969465648855,-2.7709923664122136,-1.6259541984732824,0.0040073394775390625
-0.3297119140625,-0.2730712890625,0.80224609375,-0.9465648854961832,-2.7404580152671754,-1.9389312977099236,0.00400853157043457
-0.3228759765625,-0.2698974609375,0.79833984375,-1.1526717557251909,-2.49618320610687,-1.9236641221374047,0.0040073394775390625
-0.3175048828125,-0.2706298828125,0.799072265625,-1.4274809160305344,-2.3893129770992365,-1.5572519083969465,0.004008293151855469
-0.3197021484375,-0.2745361328125,0.80517578125,-1.2061068702290076,-2.2748091603053435,-1.2671755725190839,0.004008054733276367
-0.3214111328125,-0.2755126953125,0.807373046875,-1.0458015267175573,-2.8473282442748094,-1.1068702290076335,0.004006147384643555
-0.3133544921875,-0.2747802734375,0.798095703125,-0.732824427480916,-2.8091603053435112,-0.7862595419847328,0.0040090084075927734
-0.3084716796875,-0.2681884765625,0.803466796875,-0.648854961832061,-3.0839694656488548,-0.4961832061068702,0.004010200500488281
-0.3089599609375,-0.2803955078125,0.79736328125,-0.8702290076335878,-2.969465648854962,-0.732824427480916,0.004006147384643555
-0.3167724609375,-0.2742919921875,0.786376953125,-0.6793893129770993,-3.099236641221374,-0.6717557251908397,0.0040056705474853516
-0.3206787109375,-0.2811279296875,0.793212890625,-0.9541984732824428,-3.1297709923664123,-0.9694656488549618,0.004006862640380859
-0.3096923828125,-0.2781982421875,0.788818359375,-0.9007633587786259,-3.549618320610687,-0.816793893129771,0.004008769989013672
-0.3184814453125,-0.2742919921875,0.788818359375,-1.083969465648855,-3.4198473282442747,-0.8625954198473282,0.004010200500488281
-0.3143310546875,-0.2769775390625,0.78515625,-1.366412213740458,-3.519083969465649,-0.6564885496183206,0.004008054733276367
-0.3116455078125,-0.2821044921875,0.80078125,-1.2900763358778626,-3.5419847328244276,-0.4351145038167939,0.004250526428222656
-0.3216552734375,-0.2740478515625,0.79296875,-1.0534351145038168,-3.7557251908396947,-0.549618320610687,0.00402522087097168
-0.3143310546875,-0.2764892578125,0.791259765625,-0.5801526717557252,-3.8931297709923665,-0.4961832061068702,0.004011631011962891
-0.3167724609375,-0.2745361328125,0.789306640625,-0.5267175572519084,-4.061068702290076,-0.8015267175572519,0.0041046142578125
-0.3175048828125,-0.2723388671875,0.786376953125,-0.15267175572519084,-3.8931297709923665,-0.48091603053435117,0.004148960113525391
-0.3221435546875,-0.2767333984375,0.794189453125,-0.183206106870229,-3.9083969465648853,-0.42748091603053434,0.0040781497955322266
-0.3201904296875,-0.2808837890625,0.794921875,0.08396946564885496,-3.633587786259542,-0.5954198473282443,0.004008769989013672
-0.3116455078125,-0.2774658203125,0.7890625,0.2900763358778626,-4.137404580152672,-0.5038167938931297,0.00408482551574707
-0.3226318359375,-0.2774658203125,0.794921875,0.44274809160305345,-3.8091603053435112,-0.6717557251908397,0.0037260055541992188
-0.3211669921875,-0.2777099609375,0.790771484375,0.3816793893129771,-4.122137404580153,-0.5267175572519084,0.0019078254699707031
-0.3240966796875,-0.2833251953125,0.780517578125,0.26717557251908397,-4.221374045801527,-0.5190839694656488,0.0019001960754394531
-0.3204345703125,-0.2872314453125,0.784912109375,0.11450381679389313,-4.038167938931298,-0.5343511450381679,0.002142190933227539
-0.3155517578125,-0.2855224609375,0.78466796875,-0.19083969465648856,-3.83206106870229,-0.2595419847328244,0.004010915756225586
-0.3209228515625,-0.2803955078125,0.789306640625,-0.06870229007633588,-3.877862595419847,-0.2824427480916031,0.0040128231048583984
-0.3206787109375,-0.2860107421875,0.791015625,-0.21374045801526717,-3.7022900763358777,-0.2748091603053435,0.004007101058959961
-0.3216552734375,-0.2906494140625,0.802001953125,-0.2900763358778626,-3.763358778625954,-0.2824427480916031,0.0040209293365478516
-0.3206787109375,-0.2877197265625,0.794677734375,-0.2900763358778626,-3.8091603053435112,0.05343511450381679,0.004014253616333008
-0.3284912109375,-0.2901611328125,0.793701171875,-0.15267175572519084,-3.8091603053435112,-0.17557251908396945,0.004009723663330078
-0.3231201171875,-0.2825927734375,0.792236328125,-0.29770992366412213,-3.931297709923664,0.007633587786259542,0.0040624141693115234
-0.3265380859375,-0.2894287109375,0.791259765625,-0.2824427480916031,-3.8625954198473282,-0.04580152671755725,0.004027366638183594
-0.3231201171875,-0.2884521484375,0.791259765625,-0.5038167938931297,-3.931297709923664,0.07633587786259542,0.004010438919067383
-0.3228759765625,-0.2891845703125,0.7900390625,-0.6793893129770993,-3.732824427480916,0.2824427480916031,0.004010200500488281
-0.3226318359375,-0.2850341796875,0.79296875,-0.8015267175572519,-3.9389312977099236,0.4122137404580153,0.0040094852447509766
-0.3209228515625,-0.2852783203125,0.7939453125,-0.9847328244274809,-3.8396946564885495,0.3969465648854962,0.0040094852447509766
-0.3214111328125,-0.2860107421875,0.794677734375,-0.9389312977099237,-4.114503816793893,0.6870229007633588,0.0040471553802490234
-0.3250732421875,-0.2828369140625,0.8056640625,-0.7404580152671756,-3.8625954198473282,0.732824427480916,0.004015445709228516
-0.3333740234375,-0.2803955078125,0.79833984375,-0.549618320610687,-3.7709923664122136,0.3511450381679389,0.004008769989013672
-0.3280029296875,-0.2774658203125,0.798095703125,-0.48854961832061067,-3.6259541984732824,0.4122137404580153,0.0040166378021240234
-0.3306884765625,-0.2777099609375,0.789794921875,-0.25190839694656486,-3.5114503816793894,0.3816793893129771,0.004012107849121094
-0.3284912109375,-0.2803955078125,0.790771484375,-0.5038167938931297,-3.5114503816793894,0.24427480916030533,0.004007101058959961
-0.3201904296875,-0.2796630859375,0.803466796875,-0.5038167938931297,-3.381679389312977,-0.022900763358778626,0.0040090084075927734
-0.3275146484375,-0.2735595703125,0.79931640625,-0.7862595419847328,-3.33587786259542,-0.0916030534351145,0.004010200500488281
