emg_0,emg_1,emg_2,emg_3,emg_4,acc_x,acc_y,acc_z,gyro_x,gyro_y,gyro_z,dt
0.0,0.0,0.0,0.0,0.0,0.0,0.40446901321411133
0.0,0.0,0.0,0.0,0.0,0.0,0.0019366741180419922
0.0,0.0,0.0,0.0,0.0,0.0,0.0019693374633789062
0.0,0.0,0.0,-9.17557251908397,-21.709923664122137,13.557251908396946,0.001889944076538086
0.8857421875,0.412109375,-0.4957275390625,-12.916030534351146,-29.65648854961832,13.320610687022901,0.0019047260284423828
0.8828125,0.4140625,-0.5013427734375,-12.541984732824428,-26.587786259541986,11.763358778625955,0.001940011978149414
0.883544921875,0.4111328125,-0.4945068359375,-11.679389312977099,-19.18320610687023,7.076335877862595,0.001951456069946289
0.881103515625,0.408447265625,-0.4969482421875,-9.86259541984733,-6.534351145038168,4.3893129770992365,0.0019352436065673828
0.8828125,0.4140625,-0.4910888671875,-16.076335877862597,9.633587786259541,6.312977099236641,0.001931905746459961
0.87451171875,0.41259765625,-0.4962158203125,-27.61832061068702,-8.969465648854962,6.473282442748092,0.0019307136535644531
0.879150390625,0.4130859375,-0.4976806640625,-7.33587786259542,-19.053435114503817,6.458015267175573,0.0019252300262451172
0.8798828125,0.410400390625,-0.5052490234375,2.030534351145038,-4.2748091603053435,6.557251908396947,0.0019366741180419922
0.881591796875,0.406494140625,-0.4947509765625,-0.16030534351145037,-1.9694656488549618,2.5572519083969465,0.0019316673278808594
0.880126953125,0.4140625,-0.4945068359375,0.05343511450381679,-3.8396946564885495,-1.3206106870229009,0.0019481182098388672
0.882568359375,0.4091796875,-0.4964599609375,-0.09923664122137404,-3.427480916030534,0.2900763358778626,0.0019981861114501953
0.88427734375,0.416748046875,-0.5006103515625,0.13740458015267176,-3.4656488549618323,-0.007633587786259542,0.001898050308227539
0.882080078125,0.41796875,-0.4954833984375,0.022900763358778626,-3.549618320610687,-0.022900763358778626,0.002001047134399414
0.882080078125,0.41748046875,-0.4874267578125,0.0916030534351145,-3.480916030534351,-0.05343511450381679,0.0019145011901855469
0.885009765625,0.415771484375,-0.4947509765625,-0.03816793893129771,-3.49618320610687,-0.24427480916030533,0.0018551349639892578
0.880859375,0.41796875,-0.4984130859375,-0.07633587786259542,-3.480916030534351,0.007633587786259542,0.0018718242645263672
0.88232421875,0.410888671875,-0.4962158203125,0.007633587786259542,-3.4427480916030535,-0.1450381679389313,0.0019390583038330078
0.885009765625,0.414306640625,-0.4971923828125,-0.03816793893129771,-3.4427480916030535,-0.015267175572519083,0.0020406246185302734
0.88134765625,0.41748046875,-0.5018310546875,-0.061068702290076333,-3.4122137404580153,-0.09923664122137404,0.0018374919891357422
0.8837890625,0.41796875,-0.4991455078125,-0.015267175572519083,-3.282442748091603,0.007633587786259542,0.0018024444580078125
0.884033203125,0.411376953125,-0.4947509765625,0.05343511450381679,-3.3969465648854964,-0.06870229007633588,0.0018057823181152344
0.879150390625,0.41455078125,-0.5003662109375,0.022900763358778626,-3.4732824427480917,-0.1297709923664122,0.0018007755279541016
0.880126953125,0.415283203125,-0.5052490234375,0.007633587786259542,-3.3893129770992365,-0.022900763358778626,0.0018970966339111328
0.88232421875,0.412353515625,-0.5045166015625,0.11450381679389313,-3.3206106870229006,-0.32061068702290074,0.0020143985748291016
0.88232421875,0.409912109375,-0.4986572265625,-0.19083969465648856,-3.49618320610687,0.183206106870229,0.0020151138305664062
0.88427734375,0.412109375,-0.5074462890625,-0.19083969465648856,-3.6259541984732824,-0.22137404580152673,0.0018134117126464844
0.889404296875,0.414306640625,-0.5064697265625,0.04580152671755725,-3.7786259541984735,-0.10687022900763359,0.0018897056579589844
0.881591796875,0.41796875,-0.4989013671875,0.09923664122137404,-3.4732824427480917,0.06870229007633588,0.0018010139465332031
0.88623046875,0.415283203125,-0.5086669921875,-0.061068702290076333,-3.33587786259542,-0.1984732824427481,0.0017957687377929688
0.88720703125,0.42041015625,-0.5057373046875,0.007633587786259542,-3.480916030534351,0.007633587786259542,0.0018053054809570312
0.886474609375,0.41552734375,-0.5001220703125,-0.05343511450381679,-3.267175572519084,0.007633587786259542,0.0017933845520019531
0.885009765625,0.418212890625,-0.5047607421875,0.07633587786259542,-3.312977099236641,-0.20610687022900764,0.0017919540405273438
0.884521484375,0.417236328125,-0.5015869140625,0.1984732824427481,-3.3587786259541983,-0.1450381679389313,0.0018146038055419922
0.889892578125,0.410888671875,-0.5010986328125,-0.04580152671755725,-3.236641221374046,-0.04580152671755725,0.0017917156219482422
0.879638671875,0.409423828125,-0.4996337890625,0.061068702290076333,-3.427480916030534,-0.015267175572519083,0.001791238784790039
0.8798828125,0.4130859375,-0.4947509765625,0.15267175572519084,-3.3435114503816794,-0.015267175572519083,0.0017971992492675781
0.884033203125,0.407958984375,-0.4998779296875,-0.11450381679389313,-3.33587786259542,-0.061068702290076333,0.0017962455749511719
0.883544921875,0.4140625,-0.4945068359375,-0.07633587786259542,-3.4427480916030535,-0.04580152671755725,0.0017952919006347656
0.885986328125,0.4130859375,-0.5035400390625,-0.015267175572519083,-3.4198473282442747,-0.09923664122137404,0.0017960071563720703
0.88525390625,0.412841796875,-0.4981689453125,0.0,-3.2748091603053435,-0.03816793893129771,0.0017936229705810547
0.886962890625,0.4091796875,-0.5001220703125,0.061068702290076333,-3.3206106870229006,-0.26717557251908397,0.0017960071563720703
0.88671875,0.413818359375,-0.5035400390625,-0.13740458015267176,-3.3740458015267176,-0.1450381679389313,0.0017943382263183594
0.87841796875,0.414794921875,-0.5084228515625,-0.0916030534351145,-3.213740458015267,-0.03816793893129771,0.0017940998077392578
0.8798828125,0.416015625,-0.5025634765625,0.0916030534351145,-3.404580152671756,-0.35877862595419846,0.001794576644897461
0.880615234375,0.41552734375,-0.4976806640625,-0.07633587786259542,-3.366412213740458,-0.11450381679389313,0.0017933845520019531
0.883056640625,0.41796875,-0.4923095703125,0.022900763358778626,-3.068702290076336,-0.06870229007633588,0.001794576644897461
0.882568359375,0.41259765625,-0.4859619140625,0.0916030534351145,-3.1755725190839694,-0.022900763358778626,0.0017936229705810547
0.8896484375,0.411865234375,-0.5067138671875,-0.022900763358778626,-3.4122137404580153,-0.03816793893129771,0.0017952919006347656
0.885498046875,0.4150390625,-0.5003662109375,-0.007633587786259542,-3.3053435114503817,-0.06870229007633588,0.00179290771484375
0.88330078125,0.412109375,-0.4974365234375,0.04580152671755725,-3.1526717557251906,-0.0916030534351145,0.001794576644897461
0.8876953125,0.409912109375,-0.5030517578125,0.007633587786259542,-3.0763358778625953,0.0,0.0017933845520019531
0.8828125,0.4072265625,-0.4962158203125,0.03816793893129771,-3.0763358778625953,-0.015267175572519083,0.0017917156219482422
0.885986328125,0.41259765625,-0.5008544921875,0.061068702290076333,-3.183206106870229,-0.2748091603053435,0.0018198490142822266
0.883544921875,0.4150390625,-0.4967041015625,0.1450381679389313,-3.213740458015267,0.0,0.0018091201782226562
0.88232421875,0.4150390625,-0.5008544921875,0.11450381679389313,-3.015267175572519,0.05343511450381679,0.0017971992492675781
0.880615234375,0.417236328125,-0.4967041015625,0.22137404580152673,-3.2290076335877864,0.05343511450381679,0.0018079280853271484
0.882568359375,0.417724609375,-0.4930419921875,-0.061068702290076333,-3.2977099236641223,-0.13740458015267176,0.0017969608306884766
0.878662109375,0.41015625,-0.4952392578125,0.007633587786259542,-3.3053435114503817,0.1450381679389313,0.0017938613891601562
0.87939453125,0.415771484375,-0.4974365234375,0.1450381679389313,-3.183206106870229,0.12213740458015267,0.0017940998077392578
0.88134765625,0.414794921875,-0.4967041015625,-0.015267175572519083,-3.16793893129771,-0.3511450381679389,0.0018177032470703125
0.87890625,0.4150390625,-0.4949951171875,0.16793893129770993,-3.3206106870229006,-0.0916030534351145,0.0018663406372070312
0.882568359375,0.418212890625,-0.4967041015625,0.06870229007633588,-3.1526717557251906,-0.11450381679389313,0.0017979145050048828
0.88818359375,0.41064453125,-0.5025634765625,0.1297709923664122,-3.122137404580153,-0.03816793893129771,0.0017952919006347656
0.88525390625,0.41748046875,-0.5008544921875,0.08396946564885496,-3.16793893129771,0.007633587786259542,0.0019898414611816406
0.881103515625,0.407958984375,-0.5040283203125,0.007633587786259542,-2.8931297709923665,-0.030534351145038167,0.0018165111541748047
0.887451171875,0.41162109375,-0.4906005859375,0.06870229007633588,-2.885496183206107,-0.11450381679389313,0.0017974376678466797
0.880126953125,0.41064453125,-0.4935302734375,0.3282442748091603,-2.969465648854962,-0.17557251908396945,0.001795053482055664
0.8828125,0.40673828125,-0.4923095703125,-0.05343511450381679,-2.984732824427481,0.007633587786259542,0.0017952919006347656
0.88134765625,0.410888671875,-0.4986572265625,0.1450381679389313,-2.8931297709923665,-0.007633587786259542,0.0017936229705810547
0.88623046875,0.408203125,-0.4984130859375,0.25190839694656486,-3.267175572519084,0.030534351145038167,0.001795053482055664
0.890869140625,0.40966796875,-0.5032958984375,0.10687022900763359,-2.8625954198473282,0.0,0.0017919540405273438
0.884033203125,0.40966796875,-0.5001220703125,0.11450381679389313,-2.931297709923664,-0.1984732824427481,0.0017926692962646484
0.8798828125,0.41845703125,-0.4923095703125,0.21374045801526717,-3.099236641221374,-0.061068702290076333,0.0017936229705810547
0.876220703125,0.415283203125,-0.5008544921875,0.25190839694656486,-3.1068702290076335,0.022900763358778626,0.00179290771484375
0.880615234375,0.41796875,-0.4954833984375,0.15267175572519084,-3.053435114503817,-0.05343511450381679,0.0017933845520019531
0.887451171875,0.416748046875,-0.5006103515625,0.0,-3.198473282442748,-0.15267175572519084,0.0017936229705810547
0.883544921875,0.41259765625,-0.4959716796875,-0.20610687022900764,-3.1526717557251906,-0.17557251908396945,0.0017921924591064453
0.883056640625,0.4140625,-0.4918212890625,0.10687022900763359,-3.1755725190839694,-0.061068702290076333,0.0017936229705810547
0.885986328125,0.41357421875,-0.4962158203125,0.09923664122137404,-3.2748091603053435,-0.015267175572519083,0.0017933845520019531
0.87451171875,0.416015625,-0.4996337890625,0.15267175572519084,-3.053435114503817,0.11450381679389313,0.0017931461334228516
0.882080078125,0.416748046875,-0.4974365234375,0.2748091603053435,-3.2595419847328246,-0.16793893129770993,0.00179290771484375
0.88037109375,0.413330078125,-0.5003662109375,0.32061068702290074,-3.0381679389312977,-0.08396946564885496,0.0017921924591064453
0.8798828125,0.417236328125,-0.5006103515625,0.10687022900763359,-3.053435114503817,-0.1297709923664122,0.0017936229705810547
0.882568359375,0.41357421875,-0.4952392578125,-0.015267175572519083,-3.2977099236641223,-0.20610687022900764,0.00179290771484375
0.883544921875,0.4150390625,-0.4998779296875,0.015267175572519083,-2.9083969465648853,0.03816793893129771,0.0017931461334228516
0.8837890625,0.4130859375,-0.4947509765625,0.12213740458015267,-3.2519083969465647,-0.06870229007633588,0.0017917156219482422
0.88720703125,0.41357421875,-0.5015869140625,0.13740458015267176,-3.351145038167939,-0.015267175572519083,0.001789093017578125
0.8818359375,0.4150390625,-0.5020751953125,-0.007633587786259542,-3.2519083969465647,-0.061068702290076333,0.0017936229705810547
0.884765625,0.412353515625,-0.4959716796875,0.0916030534351145,-3.16793893129771,-0.030534351145038167,0.0017948150634765625
0.880859375,0.409912109375,-0.4967041015625,0.1984732824427481,-3.2595419847328246,-0.10687022900763359,0.0017938613891601562
0.883056640625,0.412353515625,-0.4993896484375,-0.022900763358778626,-3.236641221374046,0.15267175572519084,0.0017921924591064453
0.883544921875,0.410400390625,-0.5013427734375,0.015267175572519083,-3.5572519083969465,0.0,0.0017924308776855469
0.88525390625,0.4130859375,-0.4971923828125,0.3053435114503817,-3.3435114503816794,-0.19083969465648856,0.0017931461334228516
0.877197265625,0.415771484375,-0.4984130859375,0.06870229007633588,-3.427480916030534,-0.06870229007633588,0.00179290771484375
0.8916015625,0.4130859375,-0.4925537109375,0.04580152671755725,-3.2442748091603053,-0.05343511450381679,0.0017921924591064453
0.885986328125,0.41650390625,-0.4962158203125,0.09923664122137404,-3.1908396946564888,-0.15267175572519084,0.0017924308776855469
0.88037109375,0.416015625,-0.5018310546875,-0.03816793893129771,-3.5343511450381677,-0.09923664122137404,0.0017936229705810547
0.88232421875,0.415771484375,-0.4962158203125,0.030534351145038167,-3.267175572519084,-0.4122137404580153,0.0017926692962646484
0.8828125,0.4150390625,-0.5032958984375,-0.03816793893129771,-3.145038167938931,-0.11450381679389313,0.00179290771484375
0.8828125,0.416015625,-0.5040283203125,-0.06870229007633588,-3.404580152671756,-0.19083969465648856,0.0017924308776855469
0.884033203125,0.41064453125,-0.5018310546875,0.09923664122137404,-3.33587786259542,-0.022900763358778626,0.00179290771484375
0.881591796875,0.410888671875,-0.5018310546875,0.1984732824427481,-3.381679389312977,-0.21374045801526717,0.0017921924591064453
0.88232421875,0.41552734375,-0.5020751953125,-0.030534351145038167,-3.404580152671756,-0.015267175572519083,0.0017933845520019531
0.88427734375,0.41357421875,-0.4954833984375,0.06870229007633588,-3.480916030534351,-0.1984732824427481,0.0017933845520019531
0.88671875,0.410888671875,-0.4986572265625,0.007633587786259542,-3.3435114503816794,-0.13740458015267176,0.00179290771484375
0.882568359375,0.410888671875,-0.4996337890625,0.030534351145038167,-3.3740458015267176,-0.24427480916030533,0.0017917156219482422
0.885009765625,0.409912109375,-0.5030517578125,0.06870229007633588,-3.381679389312977,-0.08396946564885496,0.0017931461334228516
0.879638671875,0.419677734375,-0.4979248046875,0.015267175572519083,-3.3206106870229006,-0.24427480916030533,0.0017933845520019531
0.884521484375,0.410400390625,-0.4969482421875,0.1297709923664122,-3.1374045801526718,-0.2900763358778626,0.0017919540405273438
0.8798828125,0.413330078125,-0.4986572265625,0.04580152671755725,-3.33587786259542,-0.04580152671755725,0.0017933845520019531
0.883056640625,0.410888671875,-0.4971923828125,0.22900763358778625,-3.435114503816794,-0.13740458015267176,0.0017921924591064453
0.88232421875,0.41650390625,-0.4984130859375,0.015267175572519083,-3.3282442748091605,-0.183206106870229,0.00179290771484375
0.8818359375,0.41259765625,-0.4993896484375,0.08396946564885496,-3.3587786259541983,-0.26717557251908397,0.0017926692962646484
0.883544921875,0.41064453125,-0.4979248046875,0.0916030534351145,-3.3969465648854964,0.16793893129770993,0.00179290771484375
0.884033203125,0.414306640625,-0.4949951171875,0.03816793893129771,-3.6106870229007635,-0.10687022900763359,0.0017926692962646484
0.8818359375,0.416015625,-0.4942626953125,-0.007633587786259542,-3.3969465648854964,-0.17557251908396945,0.0017924308776855469
0.88232421875,0.41796875,-0.4930419921875,-0.08396946564885496,-3.4580152671755724,-0.11450381679389313,0.0018050670623779297
0.88525390625,0.41748046875,-0.5006103515625,0.05343511450381679,-3.49618320610687,0.007633587786259542,0.00179290771484375
0.875,0.415771484375,-0.4932861328125,-0.007633587786259542,-3.3053435114503817,-0.2900763358778626,0.0017933845520019531
0.877685546875,0.4140625,-0.5010986328125,-0.10687022900763359,-3.3435114503816794,0.04580152671755725,0.001791238784790039
0.880859375,0.41015625,-0.5035400390625,-0.04580152671755725,-3.312977099236641,-0.015267175572519083,0.0017921924591064453
0.8828125,0.4150390625,-0.4940185546875,0.061068702290076333,-3.4427480916030535,-0.2900763358778626,0.0017919540405273438
0.882568359375,0.40966796875,-0.4893798828125,-0.06870229007633588,-3.5419847328244276,0.1297709923664122,0.0017917156219482422
0.883056640625,0.415771484375,-0.5076904296875,0.04580152671755725,-3.435114503816794,0.06870229007633588,0.00179290771484375
0.884765625,0.4150390625,-0.5018310546875,0.06870229007633588,-3.2519083969465647,-0.030534351145038167,0.0017919540405273438
0.880859375,0.418701171875,-0.5010986328125,0.06870229007633588,-3.435114503816794,-0.1297709923664122,0.0017926692962646484
0.880615234375,0.41796875,-0.4984130859375,0.07633587786259542,-3.312977099236641,0.061068702290076333,0.0017921924591064453
0.885498046875,0.42041015625,-0.5020751953125,-0.06870229007633588,-3.5267175572519083,0.06870229007633588,0.0017926692962646484
0.88134765625,0.41650390625,-0.4942626953125,-0.030534351145038167,-3.618320610687023,0.015267175572519083,0.0018761157989501953
0.88232421875,0.410400390625,-0.4925537109375,0.022900763358778626,-3.549618320610687,-0.11450381679389313,0.0017976760864257812
0.881591796875,0.4140625,-0.5035400390625,-0.030534351145038167,-3.3435114503816794,-0.061068702290076333,0.0017940998077392578
0.878173828125,0.414306640625,-0.4918212890625,-0.022900763358778626,-3.198473282442748,-0.12213740458015267,0.0017933845520019531
0.883544921875,0.41650390625,-0.5013427734375,0.03816793893129771,-3.4885496183206106,0.007633587786259542,0.0017936229705810547
0.8818359375,0.41552734375,-0.4986572265625,0.05343511450381679,-3.7251908396946565,0.15267175572519084,0.0017931461334228516
0.88232421875,0.414794921875,-0.4998779296875,0.0,-3.366412213740458,0.04580152671755725,0.00179290771484375
0.8779296875,0.40966796875,-0.4967041015625,0.13740458015267176,-3.595419847328244,-0.16793893129770993,0.0017910003662109375
0.883056640625,0.41259765625,-0.4981689453125,0.12213740458015267,-3.5267175572519083,0.0,0.0017921924591064453
0.887939453125,0.40966796875,-0.4884033203125,-0.06870229007633588,-3.5114503816793894,-0.04580152671755725,0.001791238784790039
0.887939453125,0.4091796875,-0.4969482421875,0.015267175572519083,-3.519083969465649,-0.22900763358778625,0.0017931461334228516
0.8837890625,0.41357421875,-0.5025634765625,-0.05343511450381679,-3.381679389312977,-0.3511450381679389,0.00179290771484375
0.88525390625,0.416748046875,-0.4979248046875,-0.03816793893129771,-3.3587786259541983,0.022900763358778626,0.0017921924591064453
0.885009765625,0.412109375,-0.5067138671875,-0.10687022900763359,-3.2442748091603053,-0.19083969465648856,0.0017926692962646484
0.884521484375,0.41796875,-0.4991455078125,0.03816793893129771,-3.183206106870229,-0.21374045801526717,0.0017921924591064453
0.88525390625,0.411865234375,-0.4991455078125,-0.1450381679389313,-3.3969465648854964,-0.07633587786259542,0.0017924308776855469
0.890625,0.41357421875,-0.5010986328125,-0.07633587786259542,-3.6564885496183206,-0.2366412213740458,0.0017926692962646484
0.88037109375,0.416259765625,-0.5015869140625,0.007633587786259542,-3.5343511450381677,-0.06870229007633588,0.0017924308776855469
0.885498046875,0.413330078125,-0.4898681640625,0.030534351145038167,-3.49618320610687,-0.022900763358778626,0.0017924308776855469
0.880126953125,0.41845703125,-0.4989013671875,0.022900763358778626,-3.49618320610687,-0.06870229007633588,0.00179290771484375
0.879150390625,0.4189453125,-0.4903564453125,0.05343511450381679,-3.427480916030534,-0.0916030534351145,0.0017914772033691406
0.88671875,0.407470703125,-0.4971923828125,-0.04580152671755725,-3.2061068702290076,-0.183206106870229,0.0017924308776855469
0.87841796875,0.416015625,-0.4993896484375,-0.007633587786259542,-3.4198473282442747,-0.0916030534351145,0.0017917156219482422
0.882568359375,0.41162109375,-0.4893798828125,-0.16793893129770993,-3.6717557251908395,0.015267175572519083,0.0017926692962646484
0.87744140625,0.41748046875,-0.4918212890625,-0.0916030534351145,-3.4427480916030535,-0.3053435114503817,0.0017933845520019531
0.881103515625,0.41748046875,-0.4891357421875,0.015267175572519083,-3.3969465648854964,-0.13740458015267176,0.0017926692962646484
0.880859375,0.4140625,-0.4908447265625,0.015267175572519083,-3.2900763358778624,-0.11450381679389313,0.00179290771484375
0.890869140625,0.421630859375,-0.4957275390625,-0.0916030534351145,-3.2595419847328246,-0.10687022900763359,0.0017926692962646484
0.88330078125,0.414306640625,-0.4979248046875,-0.05343511450381679,-3.282442748091603,-0.31297709923664124,0.0017936229705810547
0.879638671875,0.412353515625,-0.4996337890625,0.10687022900763359,-3.3587786259541983,0.007633587786259542,0.0017924308776855469
0.879150390625,0.41552734375,-0.5013427734375,0.21374045801526717,-3.4732824427480917,-0.12213740458015267,0.0017933845520019531
0.884765625,0.4140625,-0.4945068359375,0.061068702290076333,-3.572519083969466,-0.26717557251908397,0.0017919540405273438
0.884521484375,0.416015625,-0.5025634765625,0.061068702290076333,-3.1297709923664123,-0.05343511450381679,0.0018107891082763672
0.886474609375,0.415283203125,-0.4954833984375,-0.04580152671755725,-3.2213740458015265,-0.19083969465648856,0.0017931461334228516
0.885009765625,0.416259765625,-0.4976806640625,0.09923664122137404,-3.2595419847328246,-0.12213740458015267,0.00179290771484375
0.88134765625,0.408447265625,-0.4908447265625,-0.08396946564885496,-3.3435114503816794,-0.12213740458015267,0.0017921924591064453
0.888427734375,0.415283203125,-0.4903564453125,-0.03816793893129771,-3.0381679389312977,-0.1450381679389313,0.0017924308776855469
0.883544921875,0.41064453125,-0.4920654296875,0.07633587786259542,-3.3282442748091605,-0.11450381679389313,0.0017926692962646484
0.885498046875,0.4130859375,-0.4998779296875,0.15267175572519084,-3.2977099236641223,-0.16030534351145037,0.0017926692962646484
0.88232421875,0.415771484375,-0.5035400390625,0.183206106870229,-3.099236641221374,-0.05343511450381679,0.001794576644897461
0.882080078125,0.412841796875,-0.4920654296875,0.10687022900763359,-3.2519083969465647,0.007633587786259542,0.0017921924591064453
0.883056640625,0.41259765625,-0.4998779296875,-0.0916030534351145,-3.49618320610687,-0.04580152671755725,0.0017933845520019531
0.888916015625,0.4208984375,-0.4979248046875,0.19083969465648856,-3.3053435114503817,-0.03816793893129771,0.0017926692962646484
0.883056640625,0.41357421875,-0.4884033203125,-0.03816793893129771,-3.3282442748091605,-0.061068702290076333,0.0017917156219482422
0.885498046875,0.4150390625,-0.4947509765625,-0.061068702290076333,-3.3969465648854964,-0.0916030534351145,0.0017931461334228516
0.885498046875,0.416015625,-0.4959716796875,0.015267175572519083,-3.1755725190839694,-0.015267175572519083,0.0017926692962646484
0.882568359375,0.409423828125,-0.4927978515625,0.06870229007633588,-3.1603053435114505,-0.35877862595419846,0.0017933845520019531
0.88623046875,0.416015625,-0.4930419921875,0.061068702290076333,-3.2061068702290076,-0.04580152671755725,0.0017924308776855469
0.87939453125,0.41552734375,-0.4952392578125,0.061068702290076333,-3.145038167938931,0.007633587786259542,0.0017933845520019531
0.875244140625,0.415283203125,-0.4993896484375,0.05343511450381679,-3.053435114503817,-0.2595419847328244,0.0017914772033691406
0.8837890625,0.42041015625,-0.4989013671875,0.09923664122137404,-2.9770992366412212,-0.06870229007633588,0.0017926692962646484
0.87939453125,0.41796875,-0.5037841796875,0.0,-3.267175572519084,0.030534351145038167,0.0017921924591064453
0.879638671875,0.417236328125,-0.4908447265625,-0.030534351145038167,-3.49618320610687,-0.13740458015267176,0.0017905235290527344
0.889404296875,0.415283203125,-0.4920654296875,0.22137404580152673,-3.450381679389313,0.007633587786259542,0.0017938613891601562
0.884765625,0.41650390625,-0.4915771484375,0.04580152671755725,-3.0610687022900764,-0.10687022900763359,0.00179290771484375
0.891357421875,0.413818359375,-0.4920654296875,0.17557251908396945,-3.183206106870229,-0.15267175572519084,0.0017924308776855469
0.88134765625,0.413818359375,-0.4910888671875,0.1450381679389313,-3.16793893129771,-0.09923664122137404,0.0017931461334228516
0.8857421875,0.415771484375,-0.4918212890625,0.030534351145038167,-3.2519083969465647,-0.17557251908396945,0.00179290771484375
0.89013671875,0.421875,-0.4962158203125,-0.07633587786259542,-3.236641221374046,-0.24427480916030533,0.00179290771484375
0.8857421875,0.4169921875,-0.4949951171875,-0.08396946564885496,-3.312977099236641,-0.2900763358778626,0.0017938613891601562
0.885009765625,0.4208984375,-0.4927978515625,-0.10687022900763359,-3.1755725190839694,-0.03816793893129771,0.0017919540405273438
0.885009765625,0.41015625,-0.4913330078125,0.06870229007633588,-3.0839694656488548,-0.24427480916030533,0.0017933845520019531
0.87939453125,0.419677734375,-0.4964599609375,0.0916030534351145,-3.2900763358778624,-0.10687022900763359,0.0017926692962646484
0.88037109375,0.41455078125,-0.4996337890625,0.12213740458015267,-3.312977099236641,0.0916030534351145,0.0017936229705810547
0.880615234375,0.414306640625,-0.4959716796875,-0.10687022900763359,-3.145038167938931,-0.183206106870229,0.0017924308776855469
0.88623046875,0.41162109375,-0.4896240234375,0.0916030534351145,-3.114503816793893,-0.1450381679389313,0.001863718032836914
0.884765625,0.413818359375,-0.4952392578125,0.16793893129770993,-3.366412213740458,0.030534351145038167,0.001796722412109375
0.885498046875,0.4130859375,-0.4952392578125,0.33587786259541985,-3.267175572519084,0.061068702290076333,0.0017938613891601562
0.8857421875,0.416259765625,-0.4971923828125,0.13740458015267176,-3.450381679389313,-0.12213740458015267,0.0017938613891601562
0.87939453125,0.418701171875,-0.4981689453125,-0.1450381679389313,-3.4122137404580153,-0.15267175572519084,0.00179290771484375
0.8798828125,0.41552734375,-0.4993896484375,0.03816793893129771,-2.877862595419847,-0.15267175572519084,0.0017938613891601562
0.88623046875,0.41162109375,-0.4979248046875,-0.007633587786259542,-2.9923664122137406,-0.1984732824427481,0.0017919540405273438
0.884033203125,0.412109375,-0.4923095703125,0.03816793893129771,-3.2519083969465647,-0.007633587786259542,0.0017938613891601562
0.88232421875,0.4140625,-0.4913330078125,0.20610687022900764,-3.2061068702290076,0.07633587786259542,0.00179290771484375
0.8837890625,0.4140625,-0.4984130859375,0.24427480916030533,-3.435114503816794,-0.1450381679389313,0.0018398761749267578
0.888916015625,0.4111328125,-0.5045166015625,-0.13740458015267176,-3.145038167938931,-0.05343511450381679,0.0017957687377929688
0.87890625,0.412353515625,-0.4937744140625,0.015267175572519083,-3.2977099236641223,-0.061068702290076333,0.001795053482055664
0.8828125,0.414306640625,-0.4930419921875,0.1984732824427481,-3.122137404580153,-0.06870229007633588,0.0017931461334228516
0.881103515625,0.41162109375,-0.4949951171875,0.0,-3.312977099236641,0.16793893129770993,0.0017921924591064453
0.886474609375,0.420166015625,-0.5023193359375,-0.022900763358778626,-3.3893129770992365,-0.3053435114503817,0.00179290771484375
0.879150390625,0.4140625,-0.4964599609375,0.0,-3.2061068702290076,-0.20610687022900764,0.0017931461334228516
0.884033203125,0.419921875,-0.4969482421875,0.08396946564885496,-3.1297709923664123,-0.0916030534351145,0.001791238784790039
0.885498046875,0.409423828125,-0.4932861328125,-0.12213740458015267,-3.3587786259541983,-0.11450381679389313,0.0017926692962646484
0.87939453125,0.4150390625,-0.4942626953125,0.03816793893129771,-3.2748091603053435,-0.10687022900763359,0.0017936229705810547
0.88232421875,0.410400390625,-0.4998779296875,0.08396946564885496,-3.366412213740458,-0.07633587786259542,0.00179290771484375
0.88427734375,0.413330078125,-0.4979248046875,0.08396946564885496,-3.2061068702290076,-0.05343511450381679,0.0017926692962646484
0.885498046875,0.4130859375,-0.4906005859375,0.16030534351145037,-3.3053435114503817,-0.015267175572519083,0.0017924308776855469
0.88720703125,0.413818359375,-0.4935302734375,-0.007633587786259542,-3.4122137404580153,0.08396946564885496,0.00179290771484375
0.8876953125,0.416748046875,-0.4901123046875,0.17557251908396945,-3.427480916030534,-0.32061068702290074,0.0017933845520019531
0.882568359375,0.4150390625,-0.5013427734375,-0.022900763358778626,-3.351145038167939,-0.11450381679389313,0.0018076896667480469
0.887939453125,0.413818359375,-0.4957275390625,0.030534351145038167,-3.2519083969465647,-0.21374045801526717,0.0017974376678466797
0.883544921875,0.410400390625,-0.4906005859375,0.12213740458015267,-3.053435114503817,-0.20610687022900764,0.0017940998077392578
0.8857421875,0.4140625,-0.4998779296875,0.007633587786259542,-3.3435114503816794,0.015267175572519083,0.0017933845520019531
0.88916015625,0.412353515625,-0.4989013671875,0.17557251908396945,-3.1603053435114505,-0.1450381679389313,0.0017926692962646484
0.885009765625,0.418701171875,-0.5028076171875,0.16793893129770993,-3.351145038167939,-0.08396946564885496,0.0017943382263183594
0.880859375,0.408447265625,-0.5047607421875,-0.04580152671755725,-3.4427480916030535,-0.05343511450381679,0.0017940998077392578
0.880126953125,0.411376953125,-0.4915771484375,-0.05343511450381679,-3.3053435114503817,-0.03816793893129771,0.0017924308776855469
0.88720703125,0.4130859375,-0.4949951171875,0.05343511450381679,-3.3587786259541983,0.06870229007633588,0.0017938613891601562
0.887939453125,0.4140625,-0.5003662109375,0.15267175572519084,-3.6030534351145036,-0.10687022900763359,0.00179290771484375
0.88037109375,0.416259765625,-0.5023193359375,-0.13740458015267176,-3.145038167938931,-0.19083969465648856,0.0017924308776855469
0.88232421875,0.410888671875,-0.5047607421875,0.16793893129770993,-3.3587786259541983,0.061068702290076333,0.0017926692962646484
0.882568359375,0.413330078125,-0.5006103515625,0.31297709923664124,-3.549618320610687,-0.07633587786259542,0.0017931461334228516
0.885009765625,0.408203125,-0.5001220703125,-0.1297709923664122,-3.3206106870229006,-0.1450381679389313,0.0017921924591064453
0.88134765625,0.409423828125,-0.4996337890625,0.0,-3.427480916030534,0.030534351145038167,0.0017919540405273438
0.886474609375,0.408935546875,-0.5003662109375,0.015267175572519083,-3.2213740458015265,-0.04580152671755725,0.0017921924591064453
0.887939453125,0.4130859375,-0.4893798828125,0.0916030534351145,-3.381679389312977,-0.22900763358778625,0.0017931461334228516
0.883544921875,0.413330078125,-0.5023193359375,0.08396946564885496,-3.282442748091603,0.0,0.00179290771484375
0.879638671875,0.4208984375,-0.5045166015625,0.03816793893129771,-3.4656488549618323,-0.25190839694656486,0.0017902851104736328
0.88037109375,0.417724609375,-0.5006103515625,-0.03816793893129771,-3.5419847328244276,-0.16793893129770993,0.0017936229705810547
0.884521484375,0.420166015625,-0.4954833984375,0.11450381679389313,-3.3969465648854964,-0.09923664122137404,0.00179290771484375
0.881103515625,0.412109375,-0.5015869140625,0.12213740458015267,-3.4732824427480917,-0.2366412213740458,0.00179290771484375
0.87939453125,0.4150390625,-0.4901123046875,0.16793893129770993,-3.3740458015267176,-0.11450381679389313,0.001791238784790039
0.885498046875,0.411865234375,-0.4949951171875,0.03816793893129771,-3.2977099236641223,0.022900763358778626,0.0017924308776855469
0.885986328125,0.41650390625,-0.4964599609375,0.08396946564885496,-3.595419847328244,-0.24427480916030533,0.0017926692962646484
0.87890625,0.416015625,-0.4949951171875,-0.1450381679389313,-3.404580152671756,-0.24427480916030533,0.0017921924591064453
0.880126953125,0.41650390625,-0.4969482421875,-0.31297709923664124,-3.366412213740458,-0.21374045801526717,0.0017924308776855469
0.880859375,0.41748046875,-0.4925537109375,0.04580152671755725,-3.099236641221374,-0.3053435114503817,0.0017931461334228516
0.88232421875,0.411865234375,-0.4949951171875,-0.007633587786259542,-3.2213740458015265,-0.21374045801526717,0.0017931461334228516
0.887451171875,0.410400390625,-0.4971923828125,-0.12213740458015267,-3.1908396946564888,0.1297709923664122,0.00179290771484375
0.877197265625,0.41796875,-0.4952392578125,0.06870229007633588,-3.381679389312977,-0.1984732824427481,0.0017938613891601562
0.89013671875,0.41455078125,-0.5003662109375,0.183206106870229,-3.404580152671756,-0.030534351145038167,0.0017917156219482422
0.885498046875,0.411865234375,-0.4981689453125,0.1297709923664122,-3.2977099236641223,-0.08396946564885496,0.0017936229705810547
0.87939453125,0.41162109375,-0.4940185546875,-0.06870229007633588,-3.450381679389313,0.030534351145038167,0.0017926692962646484
0.883056640625,0.41357421875,-0.5003662109375,0.061068702290076333,-3.435114503816794,-0.0916030534351145,0.0017926692962646484
0.880615234375,0.413818359375,-0.4876708984375,0.08396946564885496,-3.3435114503816794,-0.22137404580152673,0.0017917156219482422
0.88623046875,0.41357421875,-0.5013427734375,0.0,-3.5114503816793894,-0.061068702290076333,0.00179290771484375
0.883056640625,0.413818359375,-0.5003662109375,0.061068702290076333,-3.4656488549618323,-0.15267175572519084,0.0017921924591064453
0.885498046875,0.408447265625,-0.4898681640625,0.0,-3.435114503816794,-0.2900763358778626,0.0017931461334228516
0.881103515625,0.419189453125,-0.5032958984375,0.03816793893129771,-3.49618320610687,0.022900763358778626,0.0017917156219482422
0.8837890625,0.415283203125,-0.4888916015625,0.1297709923664122,-3.3435114503816794,0.0,0.0017919540405273438
0.8828125,0.41064453125,-0.5035400390625,-0.05343511450381679,-3.3587786259541983,-0.007633587786259542,0.0019099712371826172
0.87939453125,0.41357421875,-0.5015869140625,-0.07633587786259542,-3.312977099236641,0.007633587786259542,0.0017974376678466797
0.876220703125,0.414306640625,-0.4942626953125,0.09923664122137404,-3.480916030534351,-0.015267175572519083,0.0017943382263183594
0.8818359375,0.410400390625,-0.4984130859375,0.06870229007633588,-3.3587786259541983,-0.3282442748091603,0.0017938613891601562
0.88134765625,0.419677734375,-0.4981689453125,0.030534351145038167,-3.3740458015267176,-0.04580152671755725,0.0017936229705810547
0.884033203125,0.415283203125,-0.5001220703125,0.07633587786259542,-3.572519083969466,-0.13740458015267176,0.0017931461334228516
0.883056640625,0.415771484375,-0.4962158203125,0.015267175572519083,-3.381679389312977,-0.06870229007633588,0.0017931461334228516
0.88232421875,0.411376953125,-0.5067138671875,0.007633587786259542,-3.312977099236641,-0.07633587786259542,0.0017948150634765625
0.884033203125,0.409423828125,-0.5059814453125,0.04580152671755725,-3.4198473282442747,0.015267175572519083,0.00179290771484375
0.881103515625,0.412109375,-0.4920654296875,-0.1450381679389313,-3.49618320610687,-0.09923664122137404,0.0017933845520019531
0.87939453125,0.41552734375,-0.4930419921875,-0.0916030534351145,-3.2748091603053435,-0.03816793893129771,0.0017924308776855469
0.880126953125,0.42041015625,-0.4984130859375,0.007633587786259542,-3.4656488549618323,-0.007633587786259542,0.0017936229705810547
0.884765625,0.4150390625,-0.4942626953125,0.09923664122137404,-3.2442748091603053,0.007633587786259542,0.0017924308776855469
0.888427734375,0.412109375,-0.4888916015625,0.007633587786259542,-3.3587786259541983,-0.08396946564885496,0.0017914772033691406
0.87841796875,0.415771484375,-0.5032958984375,-0.04580152671755725,-3.2900763358778624,0.183206106870229,0.00179290771484375
0.88671875,0.410888671875,-0.4954833984375,0.15267175572519084,-3.618320610687023,-0.022900763358778626,0.0017952919006347656
0.8798828125,0.411865234375,-0.4979248046875,0.06870229007633588,-3.6717557251908395,0.007633587786259542,0.00179290771484375
0.881591796875,0.411865234375,-0.5015869140625,-0.07633587786259542,-3.450381679389313,-0.10687022900763359,0.0017926692962646484
0.889892578125,0.408203125,-0.5040283203125,0.0,-3.213740458015267,0.015267175572519083,0.0017933845520019531
0.8818359375,0.4111328125,-0.5006103515625,-0.007633587786259542,-3.267175572519084,0.007633587786259542,0.001790761947631836
0.8818359375,0.4150390625,-0.4952392578125,-0.08396946564885496,-2.9770992366412212,-0.366412213740458,0.00179290771484375
0.884033203125,0.41455078125,-0.4998779296875,-0.04580152671755725,-3.381679389312977,-0.11450381679389313,0.0017931461334228516
0.88623046875,0.417236328125,-0.4969482421875,0.007633587786259542,-3.267175572519084,-0.17557251908396945,0.0017926692962646484
0.885498046875,0.414794921875,-0.5008544921875,-0.1297709923664122,-3.5877862595419847,-0.06870229007633588,0.00179290771484375
0.884765625,0.409912109375,-0.4971923828125,-0.1297709923664122,-3.312977099236641,-0.16793893129770993,0.0017926692962646484
0.8818359375,0.40673828125,-0.5030517578125,0.06870229007633588,-3.2595419847328246,0.03816793893129771,0.0017936229705810547
0.884765625,0.4111328125,-0.5001220703125,-0.030534351145038167,-3.381679389312977,0.11450381679389313,0.0017919540405273438
0.8798828125,0.414306640625,-0.4903564453125,-0.015267175572519083,-3.4198473282442747,0.05343511450381679,0.00179290771484375
0.88525390625,0.41455078125,-0.5052490234375,0.04580152671755725,-3.2595419847328246,-0.09923664122137404,0.0017914772033691406
0.880615234375,0.409423828125,-0.4942626953125,-0.0916030534351145,-3.427480916030534,0.030534351145038167,0.00179290771484375
0.882568359375,0.411865234375,-0.4986572265625,-0.022900763358778626,-3.519083969465649,-0.21374045801526717,0.00179290771484375
0.884521484375,0.412109375,-0.4957275390625,0.0,-3.2977099236641223,-0.183206106870229,0.0018122196197509766
0.8857421875,0.41650390625,-0.4976806640625,0.12213740458015267,-3.4580152671755724,-0.0916030534351145,0.00179290771484375
0.886962890625,0.417236328125,-0.4998779296875,0.08396946564885496,-3.351145038167939,-0.09923664122137404,0.00179290771484375
0.8857421875,0.41650390625,-0.4937744140625,0.20610687022900764,-3.2519083969465647,-0.03816793893129771,0.0017931461334228516
0.8828125,0.419677734375,-0.5062255859375,0.10687022900763359,-3.5114503816793894,0.07633587786259542,0.0017926692962646484
0.882080078125,0.418212890625,-0.5028076171875,0.25190839694656486,-3.3053435114503817,-0.08396946564885496,0.0017924308776855469
0.88232421875,0.412109375,-0.4913330078125,0.09923664122137404,-3.50381679389313,-0.09923664122137404,0.0017931461334228516
0.88134765625,0.41552734375,-0.4959716796875,-0.007633587786259542,-3.16793893129771,-0.20610687022900764,0.0017933845520019531
0.885009765625,0.41357421875,-0.4954833984375,0.19083969465648856,-3.0229007633587788,-0.17557251908396945,0.0017931461334228516
0.880126953125,0.410400390625,-0.4937744140625,-0.04580152671755725,-3.068702290076336,-0.06870229007633588,0.00179290771484375
0.880859375,0.41650390625,-0.4998779296875,0.2824427480916031,-3.2213740458015265,0.0,0.0017938613891601562
0.880859375,0.416259765625,-0.5015869140625,0.022900763358778626,-3.404580152671756,-0.04580152671755725,0.001790761947631836
0.8818359375,0.4150390625,-0.4957275390625,0.1450381679389313,-3.480916030534351,-0.20610687022900764,0.00179290771484375
0.87939453125,0.4140625,-0.4981689453125,0.20610687022900764,-3.404580152671756,0.04580152671755725,0.0017921924591064453
0.87646484375,0.415771484375,-0.5013427734375,0.030534351145038167,-3.4427480916030535,0.16030534351145037,0.0017921924591064453
0.8779296875,0.41259765625,-0.4886474609375,0.007633587786259542,-3.3435114503816794,-0.183206106870229,0.00179290771484375
0.883056640625,0.418212890625,-0.4930419921875,0.05343511450381679,-3.1526717557251906,-0.0916030534351145,0.0017926692962646484
0.878173828125,0.418212890625,-0.5042724609375,0.030534351145038167,-3.480916030534351,-0.030534351145038167,0.0017926692962646484
0.886474609375,0.414794921875,-0.4974365234375,-0.17557251908396945,-3.145038167938931,-0.19083969465648856,0.0017936229705810547
0.885498046875,0.416259765625,-0.4981689453125,-0.09923664122137404,-3.1603053435114505,0.09923664122137404,0.0017924308776855469
0.884033203125,0.417236328125,-0.4962158203125,0.022900763358778626,-3.2213740458015265,-0.183206106870229,0.0017926692962646484
0.88720703125,0.412841796875,-0.4940185546875,0.03816793893129771,-3.1603053435114505,-0.10687022900763359,0.0017933845520019531
0.88232421875,0.41064453125,-0.4910888671875,-0.007633587786259542,-3.183206106870229,-0.32061068702290074,0.0017926692962646484
0.877197265625,0.408935546875,-0.4957275390625,-0.08396946564885496,-3.366412213740458,-0.42748091603053434,0.00179290771484375
0.876220703125,0.42041015625,-0.4923095703125,0.0,-3.213740458015267,0.04580152671755725,0.0017924308776855469
0.8818359375,0.41259765625,-0.4989013671875,0.015267175572519083,-3.2748091603053435,-0.1450381679389313,0.00179290771484375
0.888427734375,0.4111328125,-0.4976806640625,0.09923664122137404,-3.236641221374046,-0.19083969465648856,0.0017921924591064453
0.885986328125,0.4140625,-0.4969482421875,0.0916030534351145,-3.3053435114503817,-0.1297709923664122,0.0017936229705810547
0.88232421875,0.414306640625,-0.5047607421875,-0.022900763358778626,-3.145038167938931,-0.20610687022900764,0.0017921924591064453
0.882568359375,0.41259765625,-0.4954833984375,0.13740458015267176,-3.030534351145038,-0.2595419847328244,0.0017933845520019531
0.888427734375,0.413818359375,-0.4962158203125,0.15267175572519084,-3.267175572519084,-0.022900763358778626,0.0017921924591064453
0.884033203125,0.41357421875,-0.4967041015625,0.24427480916030533,-3.2061068702290076,-0.12213740458015267,0.0017926692962646484
0.884521484375,0.415771484375,-0.4927978515625,0.16030534351145037,-3.2290076335877864,-0.05343511450381679,0.0017931461334228516
0.882080078125,0.413818359375,-0.4932861328125,0.183206106870229,-3.427480916030534,0.16793893129770993,0.0017919540405273438
0.8818359375,0.40966796875,-0.5054931640625,0.04580152671755725,-3.183206106870229,-0.24427480916030533,0.0018808841705322266
0.889404296875,0.41943359375,-0.4971923828125,0.26717557251908397,-3.3969465648854964,-0.061068702290076333,0.0017976760864257812
0.8896484375,0.413818359375,-0.5015869140625,0.22900763358778625,-3.2900763358778624,-0.1450381679389313,0.0017955303192138672
0.882568359375,0.41259765625,-0.5045166015625,-0.007633587786259542,-2.8244274809160306,-0.03816793893129771,0.0017924308776855469
0.882568359375,0.41259765625,-0.4893798828125,0.022900763358778626,-3.1755725190839694,0.2748091603053435,0.0017940998077392578
0.8828125,0.417236328125,-0.4954833984375,0.04580152671755725,-3.2900763358778624,-0.21374045801526717,0.0017933845520019531
0.883056640625,0.411376953125,-0.5045166015625,-0.07633587786259542,-3.0076335877862594,-0.2366412213740458,0.0017924308776855469
0.88671875,0.41455078125,-0.4918212890625,-0.030534351145038167,-3.0839694656488548,-0.1450381679389313,0.0017933845520019531
0.88037109375,0.416015625,-0.5028076171875,0.16030534351145037,-3.1603053435114505,-0.061068702290076333,0.0017926692962646484
0.8798828125,0.41455078125,-0.4984130859375,0.17557251908396945,-3.2442748091603053,-0.0916030534351145,0.0017936229705810547
0.87890625,0.418701171875,-0.4962158203125,0.007633587786259542,-3.404580152671756,0.007633587786259542,0.0017926692962646484
0.88525390625,0.41357421875,-0.4932861328125,0.007633587786259542,-3.2442748091603053,0.09923664122137404,0.0017926692962646484
0.888427734375,0.411865234375,-0.5013427734375,0.06870229007633588,-3.1526717557251906,0.030534351145038167,0.00179290771484375
0.883544921875,0.414306640625,-0.4918212890625,0.10687022900763359,-3.4580152671755724,0.16793893129770993,0.0017926692962646484
0.882568359375,0.411376953125,-0.4869384765625,0.15267175572519084,-3.1908396946564888,-0.183206106870229,0.0017921924591064453
0.875,0.41015625,-0.4942626953125,-0.03816793893129771,-3.0610687022900764,-0.29770992366412213,0.0017931461334228516
0.881591796875,0.416748046875,-0.4989013671875,0.11450381679389313,-3.236641221374046,0.007633587786259542,0.0017917156219482422
0.884521484375,0.41552734375,-0.4998779296875,-0.06870229007633588,-3.1068702290076335,-0.183206106870229,0.0017924308776855469
0.878173828125,0.419677734375,-0.4918212890625,-0.04580152671755725,-3.213740458015267,-0.007633587786259542,0.00179290771484375
0.88232421875,0.41845703125,-0.4993896484375,0.05343511450381679,-3.0916030534351147,0.17557251908396945,0.0018076896667480469
0.88427734375,0.416015625,-0.5008544921875,0.1450381679389313,-3.3282442748091605,-0.15267175572519084,0.0017955303192138672
0.881103515625,0.417724609375,-0.4969482421875,0.19083969465648856,-3.1603053435114505,-0.0916030534351145,0.0021696090698242188
0.888427734375,0.411865234375,-0.4937744140625,0.16030534351145037,-3.427480916030534,-0.16793893129770993,0.001796722412109375
0.884765625,0.411376953125,-0.4913330078125,-0.05343511450381679,-3.1297709923664123,-0.1450381679389313,0.0017940998077392578
0.88671875,0.4111328125,-0.4898681640625,0.007633587786259542,-3.2900763358778624,-0.015267175572519083,0.001798391342163086
0.885498046875,0.41357421875,-0.5042724609375,0.022900763358778626,-3.33587786259542,-0.20610687022900764,0.0017952919006347656
0.88916015625,0.416015625,-0.4986572265625,-0.03816793893129771,-3.3587786259541983,-0.10687022900763359,0.0017964839935302734
0.884033203125,0.411376953125,-0.4935302734375,0.0,-3.2595419847328246,-0.09923664122137404,0.0017931461334228516
0.883056640625,0.416259765625,-0.4964599609375,-0.06870229007633588,-3.267175572519084,-0.09923664122137404,0.0017940998077392578
0.883544921875,0.4111328125,-0.4993896484375,-0.03816793893129771,-3.3587786259541983,-0.22900763358778625,0.0017948150634765625
0.879150390625,0.41015625,-0.4932861328125,0.16030534351145037,-3.3282442748091605,-0.10687022900763359,0.0017933845520019531
0.882080078125,0.4111328125,-0.4923095703125,0.20610687022900764,-3.4198473282442747,-0.1450381679389313,0.0017921924591064453
0.880126953125,0.4189453125,-0.4998779296875,0.3053435114503817,-3.3282442748091605,-0.007633587786259542,0.0017895698547363281
0.88330078125,0.4140625,-0.5003662109375,0.10687022900763359,-3.427480916030534,0.03816793893129771,0.001795053482055664
0.884765625,0.409423828125,-0.4925537109375,0.06870229007633588,-3.427480916030534,-0.10687022900763359,0.0017933845520019531
0.87890625,0.416748046875,-0.4945068359375,-0.07633587786259542,-3.1374045801526718,-0.13740458015267176,0.0017940998077392578
0.880859375,0.416259765625,-0.4942626953125,-0.03816793893129771,-3.1603053435114505,-0.061068702290076333,0.0017926692962646484
0.880126953125,0.4140625,-0.5032958984375,-0.015267175572519083,-3.2519083969465647,-0.16793893129770993,0.0017940998077392578
0.875732421875,0.41455078125,-0.4927978515625,0.09923664122137404,-3.427480916030534,-0.24427480916030533,0.0017931461334228516
0.886962890625,0.4111328125,-0.4937744140625,-0.22900763358778625,-3.099236641221374,-0.1450381679389313,0.00179290771484375
0.8837890625,0.415771484375,-0.4923095703125,0.09923664122137404,-3.198473282442748,-0.2366412213740458,0.0017919540405273438
0.882568359375,0.409912109375,-0.4930419921875,0.20610687022900764,-3.618320610687023,0.0,0.0017902851104736328
0.884765625,0.4140625,-0.4923095703125,0.25190839694656486,-3.435114503816794,-0.022900763358778626,0.0017919540405273438
0.885498046875,0.416015625,-0.4989013671875,0.1297709923664122,-3.435114503816794,-0.07633587786259542,0.0017931461334228516
0.879638671875,0.416015625,-0.4915771484375,0.1984732824427481,-3.5419847328244276,0.030534351145038167,0.0017940998077392578
0.880859375,0.41650390625,-0.4927978515625,0.0,-3.4885496183206106,-0.13740458015267176,0.0017919540405273438
0.884765625,0.41357421875,-0.4991455078125,0.09923664122137404,-3.267175572519084,-0.16793893129770993,0.0017917156219482422
0.886962890625,0.41650390625,-0.4957275390625,-0.07633587786259542,-3.1068702290076335,-0.2824427480916031,0.0017931461334228516
0.88232421875,0.418212890625,-0.5006103515625,-0.061068702290076333,-3.404580152671756,-0.2595419847328244,0.0017931461334228516
0.87451171875,0.410400390625,-0.4930419921875,0.13740458015267176,-3.33587786259542,0.015267175572519083,0.0017931461334228516
0.873046875,0.4169921875,-0.4927978515625,0.0,-3.2595419847328246,-0.1450381679389313,0.0017924308776855469
0.8798828125,0.416748046875,-0.5018310546875,-0.007633587786259542,-3.3282442748091605,-0.04580152671755725,0.0017917156219482422
0.887939453125,0.4140625,-0.5008544921875,0.11450381679389313,-3.4732824427480917,0.0,0.0017936229705810547
0.878662109375,0.411865234375,-0.4981689453125,0.3435114503816794,-3.3893129770992365,-0.19083969465648856,0.0017917156219482422
0.882568359375,0.411865234375,-0.4927978515625,0.17557251908396945,-3.4732824427480917,-0.2595419847328244,0.0017926692962646484
0.885009765625,0.4130859375,-0.4906005859375,0.06870229007633588,-3.450381679389313,-0.08396946564885496,0.0017933845520019531
0.881103515625,0.419921875,-0.5025634765625,0.10687022900763359,-3.1908396946564888,-0.2824427480916031,0.0017924308776855469
0.88330078125,0.417236328125,-0.4932861328125,0.022900763358778626,-3.5114503816793894,-0.2366412213740458,0.00179290771484375
0.878662109375,0.41357421875,-0.4993896484375,0.0916030534351145,-3.2442748091603053,-0.2748091603053435,0.0017933845520019531
0.8828125,0.41455078125,-0.5015869140625,-0.10687022900763359,-3.0610687022900764,-0.21374045801526717,0.00179290771484375
0.8798828125,0.41552734375,-0.4927978515625,-0.04580152671755725,-3.16793893129771,-0.17557251908396945,0.0017919540405273438
0.882080078125,0.412353515625,-0.5015869140625,-0.05343511450381679,-3.427480916030534,-0.1297709923664122,0.0017933845520019531
0.885009765625,0.4140625,-0.4952392578125,0.0,-3.6259541984732824,0.25190839694656486,0.0017931461334228516
0.8857421875,0.41064453125,-0.4974365234375,0.13740458015267176,-3.366412213740458,0.04580152671755725,0.001790761947631836
0.880615234375,0.412353515625,-0.4967041015625,-0.015267175572519083,-3.3206106870229006,0.04580152671755725,0.00179290771484375
0.880859375,0.41455078125,-0.5023193359375,-0.0916030534351145,-3.4732824427480917,0.0,0.001912832260131836
0.88232421875,0.418701171875,-0.4881591796875,0.17557251908396945,-3.5419847328244276,-0.015267175572519083,0.0017979145050048828
0.886962890625,0.418701171875,-0.4957275390625,0.16793893129770993,-3.49618320610687,-0.12213740458015267,0.0017974376678466797
0.87939453125,0.4169921875,-0.4959716796875,0.0916030534351145,-3.4198473282442747,-0.12213740458015267,0.0017936229705810547
0.881591796875,0.413818359375,-0.5006103515625,0.015267175572519083,-3.366412213740458,-0.31297709923664124,0.0017938613891601562
0.87841796875,0.418701171875,-0.5062255859375,-0.03816793893129771,-2.9618320610687023,-0.3282442748091603,0.0017933845520019531
0.883056640625,0.408935546875,-0.4989013671875,-0.16793893129770993,-3.2977099236641223,-0.015267175572519083,0.00179290771484375
0.875732421875,0.409423828125,-0.4959716796875,0.015267175572519083,-3.427480916030534,0.007633587786259542,0.0017931461334228516
0.87890625,0.410888671875,-0.5008544921875,-0.08396946564885496,-3.2595419847328246,0.12213740458015267,0.0017938613891601562
0.882080078125,0.414306640625,-0.4989013671875,0.0,-3.50381679389313,0.022900763358778626,0.0017924308776855469
0.879638671875,0.415283203125,-0.4915771484375,0.0,-3.6106870229007635,-0.15267175572519084,0.0017921924591064453
0.87744140625,0.412353515625,-0.5006103515625,0.07633587786259542,-3.3969465648854964,0.13740458015267176,0.001790761947631836
0.88671875,0.41748046875,-0.4920654296875,0.0916030534351145,-3.2900763358778624,-0.10687022900763359,0.0018105506896972656
0.89111328125,0.417724609375,-0.4942626953125,0.007633587786259542,-3.5801526717557253,-0.07633587786259542,0.0017936229705810547
0.881103515625,0.414306640625,-0.5025634765625,-0.13740458015267176,-3.2519083969465647,-0.03816793893129771,0.0017936229705810547
0.8876953125,0.413818359375,-0.4940185546875,0.015267175572519083,-3.427480916030534,-0.3893129770992366,0.0017940998077392578
0.88427734375,0.41552734375,-0.4937744140625,-0.06870229007633588,-3.1297709923664123,0.030534351145038167,0.0017933845520019531
0.88671875,0.415283203125,-0.4969482421875,0.09923664122137404,-3.1755725190839694,-0.09923664122137404,0.0017938613891601562
0.8857421875,0.408447265625,-0.4962158203125,-0.015267175572519083,-3.312977099236641,-0.061068702290076333,0.0017924308776855469
0.88427734375,0.414306640625,-0.5015869140625,-0.09923664122137404,-3.549618320610687,-0.05343511450381679,0.0017936229705810547
0.883544921875,0.41162109375,-0.5037841796875,0.16030534351145037,-3.4732824427480917,0.09923664122137404,0.0017917156219482422
0.883544921875,0.413330078125,-0.4876708984375,0.17557251908396945,-3.4580152671755724,-0.022900763358778626,0.00179290771484375
0.883056640625,0.41845703125,-0.4849853515625,0.007633587786259542,-3.5267175572519083,-0.06870229007633588,0.0017924308776855469
0.882080078125,0.4130859375,-0.5050048828125,-0.06870229007633588,-3.3206106870229006,-0.09923664122137404,0.00179290771484375
0.88330078125,0.41162109375,-0.4967041015625,-0.015267175572519083,-3.435114503816794,-0.04580152671755725,0.00179290771484375
0.8828125,0.409423828125,-0.4888916015625,0.030534351145038167,-3.4198473282442747,-0.05343511450381679,0.0017933845520019531
0.884033203125,0.412109375,-0.4993896484375,-0.03816793893129771,-3.1603053435114505,-0.19083969465648856,0.00179290771484375
0.879638671875,0.412353515625,-0.5032958984375,-0.13740458015267176,-3.351145038167939,-0.12213740458015267,0.0017924308776855469
0.8798828125,0.41259765625,-0.4886474609375,0.0,-3.122137404580153,-0.03816793893129771,0.0017943382263183594
0.88232421875,0.41455078125,-0.4962158203125,-0.022900763358778626,-3.3053435114503817,-0.030534351145038167,0.0017902851104736328
0.882568359375,0.4111328125,-0.4996337890625,0.07633587786259542,-3.435114503816794,-0.03816793893129771,0.0017926692962646484
0.886474609375,0.415283203125,-0.5042724609375,0.10687022900763359,-3.3740458015267176,-0.06870229007633588,0.0017924308776855469
0.876953125,0.41552734375,-0.5028076171875,-0.015267175572519083,-3.6412213740458017,0.061068702290076333,0.0017931461334228516
0.884033203125,0.4091796875,-0.4984130859375,0.0,-3.687022900763359,0.12213740458015267,0.0017933845520019531
0.883544921875,0.4140625,-0.4996337890625,0.1450381679389313,-3.595419847328244,-0.1297709923664122,0.001791238784790039
0.880859375,0.4130859375,-0.4847412109375,-0.10687022900763359,-3.3053435114503817,-0.13740458015267176,0.00179290771484375
0.88427734375,0.41552734375,-0.4971923828125,-0.1984732824427481,-3.114503816793893,0.05343511450381679,0.0017924308776855469
0.884521484375,0.412353515625,-0.4989013671875,0.015267175572519083,-3.2595419847328246,-0.2824427480916031,0.0017924308776855469
0.882568359375,0.412109375,-0.4896240234375,-0.030534351145038167,-3.122137404580153,-0.32061068702290074,0.00179290771484375
0.884033203125,0.4150390625,-0.4925537109375,0.03816793893129771,-3.2213740458015265,0.1450381679389313,0.0017940998077392578
0.884521484375,0.419921875,-0.4910888671875,0.015267175572519083,-3.1755725190839694,0.12213740458015267,0.0017919540405273438
0.880615234375,0.412109375,-0.4989013671875,0.022900763358778626,-3.1908396946564888,0.0,0.0017931461334228516
0.88037109375,0.409912109375,-0.4996337890625,0.21374045801526717,-3.5877862595419847,0.022900763358778626,0.0017905235290527344
0.88671875,0.41064453125,-0.5018310546875,0.08396946564885496,-3.381679389312977,-0.015267175572519083,0.0017926692962646484
0.884521484375,0.4111328125,-0.4949951171875,0.04580152671755725,-3.572519083969466,0.030534351145038167,0.0017921924591064453
0.886962890625,0.412353515625,-0.5003662109375,-0.05343511450381679,-3.2442748091603053,0.022900763358778626,0.0017921924591064453
0.8818359375,0.41845703125,-0.4947509765625,-0.0916030534351145,-3.236641221374046,-0.04580152671755725,0.0017926692962646484
0.8759765625,0.414794921875,-0.4971923828125,-0.05343511450381679,-3.480916030534351,-0.183206106870229,0.0017924308776855469
0.884033203125,0.405517578125,-0.5018310546875,-0.022900763358778626,-3.122137404580153,-0.1297709923664122,0.00179290771484375
0.883544921875,0.409423828125,-0.4893798828125,-0.05343511450381679,-3.0229007633587788,-0.10687022900763359,0.0017921924591064453
0.88525390625,0.41748046875,-0.4984130859375,0.1297709923664122,-3.3053435114503817,-0.11450381679389313,0.0017936229705810547
0.881103515625,0.4091796875,-0.4971923828125,0.061068702290076333,-3.3893129770992365,-0.030534351145038167,0.0017921924591064453
0.8818359375,0.416015625,-0.4954833984375,-0.06870229007633588,-3.0381679389312977,-0.03816793893129771,0.0017931461334228516
0.87841796875,0.414306640625,-0.5040283203125,0.07633587786259542,-3.2977099236641223,0.07633587786259542,0.00179290771484375
0.886474609375,0.415283203125,-0.4981689453125,0.022900763358778626,-3.4427480916030535,-0.0916030534351145,0.0017914772033691406
0.884521484375,0.413330078125,-0.4920654296875,0.09923664122137404,-3.351145038167939,-0.17557251908396945,0.00179290771484375
0.8798828125,0.416259765625,-0.5054931640625,0.13740458015267176,-3.2748091603053435,0.0,0.00179290771484375
0.886962890625,0.420654296875,-0.4898681640625,0.0916030534351145,-3.435114503816794,-0.07633587786259542,0.0017910003662109375
0.89208984375,0.4150390625,-0.4942626953125,-0.022900763358778626,-3.3053435114503817,-0.04580152671755725,0.0017917156219482422
0.884521484375,0.40771484375,-0.4913330078125,0.007633587786259542,-3.122137404580153,-0.07633587786259542,0.0017936229705810547
0.883056640625,0.41748046875,-0.4957275390625,-0.04580152671755725,-3.0076335877862594,-0.0916030534351145,0.0017921924591064453
0.881103515625,0.412353515625,-0.5013427734375,0.015267175572519083,-3.3053435114503817,-0.007633587786259542,0.0017933845520019531
0.88037109375,0.408935546875,-0.4959716796875,-0.007633587786259542,-3.114503816793893,-0.0916030534351145,0.00179290771484375
0.880859375,0.415283203125,-0.4967041015625,0.007633587786259542,-3.2977099236641223,0.007633587786259542,0.0017931461334228516
0.876953125,0.41748046875,-0.4986572265625,-0.03816793893129771,-3.4122137404580153,0.11450381679389313,0.0017924308776855469
0.880615234375,0.412353515625,-0.5020751953125,0.24427480916030533,-3.3435114503816794,0.06870229007633588,0.001863241195678711
0.885986328125,0.414794921875,-0.5023193359375,-0.015267175572519083,-3.4427480916030535,-0.29770992366412213,0.0017979145050048828
0.881591796875,0.411376953125,-0.5001220703125,-0.015267175572519083,-3.183206106870229,-0.12213740458015267,0.0017940998077392578
0.881103515625,0.410400390625,-0.4940185546875,-0.0916030534351145,-3.0839694656488548,-0.24427480916030533,0.001794576644897461
0.877197265625,0.4111328125,-0.4930419921875,0.0916030534351145,-3.2213740458015265,-0.061068702290076333,0.0017926692962646484
0.888427734375,0.417236328125,-0.4981689453125,-0.10687022900763359,-3.099236641221374,-0.05343511450381679,0.0017938613891601562
0.8828125,0.413330078125,-0.4937744140625,0.12213740458015267,-2.969465648854962,-0.1450381679389313,0.001795053482055664
0.8818359375,0.415771484375,-0.4927978515625,0.030534351145038167,-3.1526717557251906,-0.05343511450381679,0.0017914772033691406
0.881591796875,0.41259765625,-0.4854736328125,-0.0916030534351145,-3.564885496183206,0.12213740458015267,0.00179290771484375
0.88037109375,0.410400390625,-0.5028076171875,0.0,-3.33587786259542,-0.03816793893129771,0.0017924308776855469
0.8798828125,0.41357421875,-0.4979248046875,0.04580152671755725,-3.366412213740458,-0.030534351145038167,0.0017921924591064453
0.87744140625,0.4169921875,-0.5013427734375,0.08396946564885496,-3.33587786259542,0.10687022900763359,0.0017926692962646484
0.8798828125,0.416259765625,-0.4930419921875,0.15267175572519084,-3.3969465648854964,0.07633587786259542,0.0017926692962646484
0.88427734375,0.41455078125,-0.4971923828125,-0.015267175572519083,-3.2748091603053435,-0.183206106870229,0.0017921924591064453
0.886474609375,0.418701171875,-0.4981689453125,0.0,-3.1908396946564888,-0.21374045801526717,0.0017936229705810547
0.883544921875,0.412353515625,-0.5032958984375,-0.08396946564885496,-3.1068702290076335,-0.030534351145038167,0.001791238784790039
0.878662109375,0.4150390625,-0.5103759765625,0.03816793893129771,-3.1374045801526718,-0.12213740458015267,0.0017948150634765625
0.885009765625,0.423095703125,-0.5008544921875,0.09923664122137404,-3.068702290076336,-0.1984732824427481,0.0017936229705810547
0.88232421875,0.415771484375,-0.4915771484375,0.19083969465648856,-3.3206106870229006,-0.1297709923664122,0.00179290771484375
0.884521484375,0.413818359375,-0.4949951171875,-0.05343511450381679,-3.4580152671755724,0.007633587786259542,0.0017933845520019531
0.881103515625,0.413818359375,-0.5008544921875,0.05343511450381679,-3.2442748091603053,-0.1450381679389313,0.0017926692962646484
0.882568359375,0.416015625,-0.5003662109375,0.03816793893129771,-3.3282442748091605,-0.1450381679389313,0.00179290771484375
0.884765625,0.413818359375,-0.4979248046875,0.061068702290076333,-3.2748091603053435,-0.07633587786259542,0.0017924308776855469
0.879638671875,0.412841796875,-0.4962158203125,0.015267175572519083,-3.50381679389313,-0.015267175572519083,0.0017933845520019531
0.884521484375,0.411865234375,-0.4989013671875,0.07633587786259542,-3.1603053435114505,0.007633587786259542,0.0017921924591064453
0.8876953125,0.419921875,-0.4932861328125,-0.1297709923664122,-3.2442748091603053,-0.2366412213740458,0.0017938613891601562
0.885009765625,0.41455078125,-0.4930419921875,0.05343511450381679,-3.404580152671756,-0.04580152671755725,0.0017931461334228516
0.883544921875,0.409912109375,-0.4913330078125,-0.05343511450381679,-3.122137404580153,-0.08396946564885496,0.00179290771484375
0.884521484375,0.412841796875,-0.4967041015625,0.015267175572519083,-3.236641221374046,-0.03816793893129771,0.002767324447631836
0.883544921875,0.416748046875,-0.5059814453125,0.16030534351145037,-3.16793893129771,-0.29770992366412213,0.0018336772918701172
0.8798828125,0.411376953125,-0.5018310546875,0.15267175572519084,-3.236641221374046,-0.3435114503816794,0.0018048286437988281
0.8818359375,0.41064453125,-0.4986572265625,-0.05343511450381679,-3.3053435114503817,0.10687022900763359,0.001832723617553711
0.883544921875,0.41162109375,-0.4884033203125,0.05343511450381679,-3.0610687022900764,-0.06870229007633588,0.0018515586853027344
0.884765625,0.416748046875,-0.5047607421875,0.0916030534351145,-3.267175572519084,-0.06870229007633588,0.0018317699432373047
0.882568359375,0.414306640625,-0.4974365234375,0.03816793893129771,-3.351145038167939,0.0,0.0017993450164794922
0.888916015625,0.419677734375,-0.4969482421875,0.0,-3.2442748091603053,0.030534351145038167,0.0017940998077392578
0.88037109375,0.4208984375,-0.4971923828125,0.007633587786259542,-3.480916030534351,-0.20610687022900764,0.0017926692962646484
0.88720703125,0.4091796875,-0.4967041015625,0.04580152671755725,-3.1755725190839694,-0.16030534351145037,0.001794576644897461
0.8798828125,0.40673828125,-0.5040283203125,0.1297709923664122,-3.2977099236641223,-0.26717557251908397,0.0017952919006347656
0.879638671875,0.414306640625,-0.4979248046875,0.13740458015267176,-3.236641221374046,-0.1984732824427481,0.0017919540405273438
0.88232421875,0.41357421875,-0.4962158203125,0.022900763358778626,-3.2748091603053435,0.0,0.0017936229705810547
0.883544921875,0.415283203125,-0.5045166015625,0.061068702290076333,-3.351145038167939,-0.10687022900763359,0.0017914772033691406
0.8857421875,0.41259765625,-0.5035400390625,-0.06870229007633588,-3.236641221374046,0.1450381679389313,0.0017921924591064453
0.8818359375,0.41357421875,-0.4967041015625,-0.05343511450381679,-3.3282442748091605,-0.030534351145038167,0.00179290771484375
0.881103515625,0.41162109375,-0.5025634765625,0.16030534351145037,-3.366412213740458,-0.10687022900763359,0.0017924308776855469
0.88916015625,0.4111328125,-0.5047607421875,0.19083969465648856,-3.2748091603053435,-0.030534351145038167,0.0017931461334228516
0.8857421875,0.41748046875,-0.5001220703125,-0.015267175572519083,-3.450381679389313,0.10687022900763359,0.0017914772033691406
0.88671875,0.412353515625,-0.4991455078125,0.04580152671755725,-3.099236641221374,0.022900763358778626,0.0017933845520019531
0.883544921875,0.407470703125,-0.4952392578125,0.06870229007633588,-3.198473282442748,0.0,0.0017924308776855469
0.88671875,0.410400390625,-0.4957275390625,-0.183206106870229,-3.1526717557251906,-0.17557251908396945,0.0017910003662109375
0.8896484375,0.411865234375,-0.4942626953125,-0.10687022900763359,-3.0610687022900764,-0.20610687022900764,0.0017910003662109375
0.884521484375,0.41748046875,-0.5010986328125,-0.015267175572519083,-3.1526717557251906,-0.16030534351145037,0.0017924308776855469
0.88330078125,0.410400390625,-0.5006103515625,0.0916030534351145,-3.5267175572519083,-0.08396946564885496,0.0017917156219482422
0.88330078125,0.41015625,-0.4976806640625,0.022900763358778626,-3.435114503816794,-0.030534351145038167,0.0017924308776855469
0.88134765625,0.415771484375,-0.4942626953125,0.16793893129770993,-3.183206106870229,-0.007633587786259542,0.001791238784790039
0.882568359375,0.414306640625,-0.5037841796875,0.09923664122137404,-3.4732824427480917,-0.030534351145038167,0.0017914772033691406
0.88037109375,0.41650390625,-0.4971923828125,-0.10687022900763359,-3.3587786259541983,-0.17557251908396945,0.0017924308776855469
0.8818359375,0.412353515625,-0.5035400390625,-0.1297709923664122,-3.427480916030534,-0.13740458015267176,0.001791238784790039
0.88232421875,0.41357421875,-0.5037841796875,-0.061068702290076333,-3.236641221374046,-0.007633587786259542,0.001844644546508789
0.884033203125,0.412353515625,-0.4952392578125,0.183206106870229,-3.5343511450381677,0.030534351145038167,0.0019371509552001953
0.883544921875,0.414794921875,-0.4940185546875,0.0,-3.312977099236641,0.06870229007633588,0.0018038749694824219
0.88330078125,0.421875,-0.4986572265625,-0.06870229007633588,-3.5267175572519083,-0.015267175572519083,0.0017931461334228516
0.884033203125,0.415283203125,-0.4959716796875,-0.17557251908396945,-3.312977099236641,-0.366412213740458,0.0018029212951660156
0.8828125,0.4150390625,-0.4874267578125,0.06870229007633588,-3.5267175572519083,-0.366412213740458,0.0017921924591064453
0.880859375,0.41796875,-0.4952392578125,-0.04580152671755725,-3.4885496183206106,-0.007633587786259542,0.0017914772033691406
0.88623046875,0.4150390625,-0.4906005859375,-0.022900763358778626,-3.2748091603053435,-0.33587786259541985,0.0019550323486328125
0.885498046875,0.417236328125,-0.4971923828125,0.0,-3.450381679389313,0.022900763358778626,0.0018038749694824219
0.884033203125,0.415771484375,-0.4854736328125,0.13740458015267176,-3.5114503816793894,-0.1297709923664122,0.00179290771484375
0.888671875,0.416259765625,-0.4957275390625,0.007633587786259542,-3.519083969465649,-0.2824427480916031,0.0017933845520019531
0.882080078125,0.416748046875,-0.4947509765625,-0.030534351145038167,-3.2595419847328246,0.0,0.001795053482055664
0.88525390625,0.40673828125,-0.4947509765625,-0.12213740458015267,-3.4656488549618323,0.07633587786259542,0.001789093017578125
0.8828125,0.416259765625,-0.4940185546875,-0.06870229007633588,-3.1755725190839694,-0.09923664122137404,0.0017919540405273438
0.88818359375,0.420654296875,-0.4925537109375,0.11450381679389313,-3.3282442748091605,0.08396946564885496,0.001791238784790039
0.886962890625,0.420654296875,-0.4949951171875,0.16030534351145037,-3.2290076335877864,-0.21374045801526717,0.0017914772033691406
0.883056640625,0.419677734375,-0.4986572265625,0.09923664122137404,-3.3740458015267176,0.09923664122137404,0.0018918514251708984
0.885498046875,0.413330078125,-0.4993896484375,-0.03816793893129771,-3.0610687022900764,0.007633587786259542,0.0018470287322998047
0.88134765625,0.412353515625,-0.4935302734375,-0.007633587786259542,-3.1297709923664123,-0.007633587786259542,0.001806020736694336
0.879150390625,0.411865234375,-0.4847412109375,0.022900763358778626,-3.2900763358778624,0.061068702290076333,0.0017936229705810547
0.88232421875,0.408203125,-0.5047607421875,0.12213740458015267,-3.312977099236641,-0.08396946564885496,0.0017926692962646484
0.87646484375,0.4140625,-0.4952392578125,0.03816793893129771,-3.564885496183206,-0.17557251908396945,0.0017921924591064453
0.88525390625,0.411865234375,-0.5006103515625,0.09923664122137404,-3.282442748091603,0.007633587786259542,0.0017924308776855469
0.882568359375,0.40966796875,-0.4925537109375,0.03816793893129771,-3.6030534351145036,-0.183206106870229,0.0017910003662109375
0.8857421875,0.41064453125,-0.4964599609375,0.08396946564885496,-3.3587786259541983,-0.007633587786259542,0.0017921924591064453
0.883056640625,0.411376953125,-0.4989013671875,0.007633587786259542,-3.312977099236641,-0.12213740458015267,0.0017910003662109375
0.8857421875,0.42236328125,-0.4959716796875,0.15267175572519084,-3.427480916030534,-0.2366412213740458,0.0017917156219482422
0.883056640625,0.41357421875,-0.4986572265625,0.03816793893129771,-3.3053435114503817,-0.05343511450381679,0.001791238784790039
0.887451171875,0.4169921875,-0.5025634765625,-0.022900763358778626,-3.0916030534351147,0.0,0.001791238784790039
0.887939453125,0.41259765625,-0.5076904296875,-0.04580152671755725,-3.145038167938931,-0.12213740458015267,0.0017902851104736328
0.884033203125,0.412109375,-0.5037841796875,0.13740458015267176,-3.282442748091603,-0.1450381679389313,0.0017919540405273438
0.88623046875,0.41650390625,-0.4942626953125,0.12213740458015267,-3.5572519083969465,-0.007633587786259542,0.0017921924591064453
0.888427734375,0.41748046875,-0.4967041015625,-0.04580152671755725,-3.2977099236641223,0.10687022900763359,0.0017921924591064453
0.885009765625,0.413330078125,-0.4993896484375,0.07633587786259542,-3.404580152671756,-0.07633587786259542,0.0017919540405273438
0.881591796875,0.4130859375,-0.5018310546875,-0.10687022900763359,-3.519083969465649,-0.022900763358778626,0.0017933845520019531
0.882568359375,0.41748046875,-0.4940185546875,0.015267175572519083,-3.5419847328244276,-0.08396946564885496,0.0017936229705810547
0.88671875,0.408935546875,-0.4920654296875,0.04580152671755725,-3.3206106870229006,-0.26717557251908397,0.0017931461334228516
0.884033203125,0.4111328125,-0.4869384765625,0.08396946564885496,-3.5419847328244276,-0.04580152671755725,0.001791238784790039
0.886962890625,0.416259765625,-0.4908447265625,-0.015267175572519083,-3.4580152671755724,-0.35877862595419846,0.0017917156219482422
0.88916015625,0.4111328125,-0.4945068359375,-0.05343511450381679,-3.1908396946564888,-0.13740458015267176,0.0017921924591064453
0.884521484375,0.414794921875,-0.4998779296875,-0.15267175572519084,-3.1068702290076335,0.015267175572519083,0.001795053482055664
0.884765625,0.41650390625,-0.4998779296875,0.11450381679389313,-3.2977099236641223,0.022900763358778626,0.0017917156219482422
0.884033203125,0.416259765625,-0.4898681640625,0.04580152671755725,-3.2213740458015265,-0.007633587786259542,0.0017924308776855469
0.88037109375,0.408203125,-0.4881591796875,0.007633587786259542,-3.366412213740458,-0.07633587786259542,0.0017898082733154297
0.8798828125,0.41015625,-0.4898681640625,0.13740458015267176,-3.4885496183206106,-0.09923664122137404,0.0017914772033691406
0.880615234375,0.418701171875,-0.5030517578125,0.007633587786259542,-3.1755725190839694,-0.1297709923664122,0.0017902851104736328
0.885498046875,0.4189453125,-0.4991455078125,-0.03816793893129771,-3.0763358778625953,-0.183206106870229,0.0017919540405273438
0.8837890625,0.4140625,-0.4859619140625,-0.08396946564885496,-3.2061068702290076,-0.17557251908396945,0.001790761947631836
0.88720703125,0.40966796875,-0.4954833984375,-0.03816793893129771,-3.2595419847328246,0.05343511450381679,0.0017917156219482422
0.88525390625,0.412841796875,-0.4969482421875,-0.16793893129770993,-3.2442748091603053,-0.2824427480916031,0.001791238784790039
0.8818359375,0.411376953125,-0.4952392578125,0.06870229007633588,-3.1526717557251906,-0.10687022900763359,0.001790761947631836
0.884521484375,0.410400390625,-0.4881591796875,0.007633587786259542,-3.2442748091603053,-0.05343511450381679,0.0017924308776855469
0.88330078125,0.4130859375,-0.4974365234375,0.09923664122137404,-3.2595419847328246,0.06870229007633588,0.0017910003662109375
0.87451171875,0.410888671875,-0.4884033203125,0.183206106870229,-3.5343511450381677,-0.13740458015267176,0.001790761947631836
0.881591796875,0.4072265625,-0.4879150390625,0.2366412213740458,-3.5801526717557253,0.11450381679389313,0.001791238784790039
0.88525390625,0.4150390625,-0.4957275390625,0.19083969465648856,-3.49618320610687,0.1450381679389313,0.0017910003662109375
0.885009765625,0.411865234375,-0.4871826171875,0.022900763358778626,-3.480916030534351,0.1450381679389313,0.001790761947631836
0.88818359375,0.4169921875,-0.4954833984375,0.08396946564885496,-3.3587786259541983,0.030534351145038167,0.0017902851104736328
0.88671875,0.415283203125,-0.5064697265625,-0.0916030534351145,-3.198473282442748,-0.16030534351145037,0.001791238784790039
0.880615234375,0.412353515625,-0.4930419921875,-0.05343511450381679,-3.099236641221374,-0.17557251908396945,0.0017910003662109375
0.880615234375,0.412109375,-0.4923095703125,-0.07633587786259542,-3.045801526717557,-0.12213740458015267,0.0017919540405273438
0.882568359375,0.411865234375,-0.4998779296875,0.015267175572519083,-3.145038167938931,-0.1450381679389313,0.0017914772033691406
0.885498046875,0.412841796875,-0.4918212890625,-0.11450381679389313,-3.4427480916030535,-0.22900763358778625,0.0017933845520019531
0.891845703125,0.412841796875,-0.4954833984375,0.07633587786259542,-3.114503816793893,-0.10687022900763359,0.001791238784790039
0.877685546875,0.415771484375,-0.4864501953125,0.09923664122137404,-3.198473282442748,-0.0916030534351145,0.0017914772033691406
0.8876953125,0.417236328125,-0.4927978515625,0.22900763358778625,-3.2900763358778624,-0.015267175572519083,0.0017905235290527344
0.882568359375,0.412353515625,-0.4976806640625,0.015267175572519083,-3.549618320610687,-0.06870229007633588,0.0017919540405273438
0.888671875,0.418212890625,-0.4925537109375,0.030534351145038167,-3.3206106870229006,-0.07633587786259542,0.0017914772033691406
0.88427734375,0.4169921875,-0.4886474609375,0.030534351145038167,-3.099236641221374,0.007633587786259542,0.001791238784790039
0.889892578125,0.42236328125,-0.5001220703125,0.007633587786259542,-3.2213740458015265,-0.16793893129770993,0.001790761947631836
0.881591796875,0.410400390625,-0.4957275390625,-0.061068702290076333,-3.4580152671755724,0.26717557251908397,0.001791238784790039
0.883544921875,0.4169921875,-0.4945068359375,0.061068702290076333,-3.3435114503816794,-0.29770992366412213,0.001953125
0.883056640625,0.4150390625,-0.4918212890625,-0.05343511450381679,-3.3053435114503817,-0.19083969465648856,0.0017974376678466797
0.884033203125,0.41357421875,-0.4927978515625,0.19083969465648856,-3.1297709923664123,-0.09923664122137404,0.0017952919006347656
0.883544921875,0.4072265625,-0.4930419921875,0.11450381679389313,-3.198473282442748,0.1984732824427481,0.0017900466918945312
0.88037109375,0.4111328125,-0.4898681640625,0.08396946564885496,-3.5877862595419847,-0.13740458015267176,0.0018444061279296875
0.8818359375,0.413330078125,-0.4949951171875,0.19083969465648856,-3.198473282442748,-0.25190839694656486,0.0017938613891601562
0.885009765625,0.41552734375,-0.4952392578125,0.16030534351145037,-3.3435114503816794,-0.030534351145038167,0.0017924308776855469
0.888671875,0.41357421875,-0.4989013671875,-0.030534351145038167,-3.33587786259542,-0.2748091603053435,0.0017917156219482422
0.89453125,0.416259765625,-0.4967041015625,0.11450381679389313,-3.236641221374046,-0.19083969465648856,0.0017914772033691406
0.8798828125,0.412353515625,-0.5025634765625,-0.1450381679389313,-2.931297709923664,-0.31297709923664124,0.0017981529235839844
0.8818359375,0.41455078125,-0.4920654296875,-0.09923664122137404,-3.3206106870229006,-0.29770992366412213,0.0017902851104736328
0.8779296875,0.4169921875,-0.5020751953125,0.03816793893129771,-3.1908396946564888,0.007633587786259542,0.0017917156219482422
0.882568359375,0.41455078125,-0.5015869140625,-0.030534351145038167,-3.1908396946564888,-0.061068702290076333,0.0017898082733154297
0.87646484375,0.414306640625,-0.4952392578125,0.04580152671755725,-3.4885496183206106,-0.1297709923664122,0.0017926692962646484
0.88232421875,0.4130859375,-0.4984130859375,-0.030534351145038167,-3.3587786259541983,-0.030534351145038167,0.001790761947631836
0.8828125,0.41650390625,-0.4984130859375,0.09923664122137404,-3.4656488549618323,0.16793893129770993,0.001791238784790039
0.888916015625,0.41357421875,-0.4984130859375,0.13740458015267176,-3.6106870229007635,0.05343511450381679,0.001790761947631836
0.88671875,0.412841796875,-0.4976806640625,0.03816793893129771,-3.145038167938931,0.07633587786259542,0.0017902851104736328
0.883544921875,0.41015625,-0.4962158203125,0.16030534351145037,-3.2977099236641223,-0.13740458015267176,0.0017905235290527344
0.8828125,0.411865234375,-0.4942626953125,0.0,-3.2748091603053435,-0.22900763358778625,0.001791238784790039
0.888916015625,0.408935546875,-0.4971923828125,-0.11450381679389313,-3.053435114503817,-0.1984732824427481,0.001790761947631836
0.885009765625,0.409912109375,-0.4923095703125,0.030534351145038167,-2.984732824427481,0.007633587786259542,0.0017898082733154297
0.891357421875,0.417724609375,-0.4937744140625,0.022900763358778626,-3.16793893129771,-0.183206106870229,0.0017910003662109375
0.882568359375,0.407958984375,-0.5098876953125,-0.09923664122137404,-3.267175572519084,-0.16030534351145037,0.0017905235290527344
0.885498046875,0.41259765625,-0.4964599609375,0.21374045801526717,-3.1526717557251906,0.007633587786259542,0.001790761947631836
0.88916015625,0.4150390625,-0.4906005859375,-0.03816793893129771,-3.381679389312977,-0.06870229007633588,0.0017914772033691406
0.883056640625,0.416748046875,-0.4979248046875,0.0916030534351145,-3.2977099236641223,-0.183206106870229,0.001790761947631836
0.876953125,0.417724609375,-0.4981689453125,0.11450381679389313,-3.2748091603053435,-0.1450381679389313,0.001790761947631836
0.8857421875,0.40966796875,-0.5008544921875,0.030534351145038167,-3.404580152671756,-0.16030534351145037,0.0017905235290527344
0.883544921875,0.413818359375,-0.4952392578125,-0.12213740458015267,-3.3740458015267176,-0.12213740458015267,0.0017914772033691406
0.877197265625,0.41259765625,-0.4918212890625,0.09923664122137404,-3.3969465648854964,-0.16030534351145037,0.001791238784790039
0.877685546875,0.412109375,-0.4986572265625,0.007633587786259542,-3.3282442748091605,-0.15267175572519084,0.0017919540405273438
0.877197265625,0.421142578125,-0.4984130859375,-0.015267175572519083,-3.0381679389312977,-0.16030534351145037,0.0017898082733154297
0.880126953125,0.415771484375,-0.5006103515625,0.06870229007633588,-3.3282442748091605,-0.183206106870229,0.00179290771484375
0.8828125,0.41796875,-0.4986572265625,-0.22137404580152673,-3.16793893129771,-0.09923664122137404,0.0017898082733154297
0.88232421875,0.4111328125,-0.4971923828125,-0.11450381679389313,-3.2900763358778624,-0.1984732824427481,0.0017902851104736328
0.87939453125,0.416259765625,-0.5047607421875,0.03816793893129771,-3.2900763358778624,-0.09923664122137404,0.0017979145050048828
0.875,0.41357421875,-0.5006103515625,0.10687022900763359,-3.519083969465649,-0.16793893129770993,0.0017914772033691406
0.88525390625,0.41259765625,-0.4969482421875,0.06870229007633588,-3.2748091603053435,-0.10687022900763359,0.0017898082733154297
0.8828125,0.4169921875,-0.4998779296875,-0.04580152671755725,-3.450381679389313,-0.07633587786259542,0.0017905235290527344
0.888671875,0.406982421875,-0.4967041015625,0.061068702290076333,-3.4122137404580153,-0.183206106870229,0.001791238784790039
0.88525390625,0.413330078125,-0.4996337890625,-0.1297709923664122,-3.2061068702290076,-0.22137404580152673,0.0017893314361572266
0.884521484375,0.4150390625,-0.4993896484375,-0.022900763358778626,-3.1603053435114505,-0.2366412213740458,0.001791238784790039
0.881103515625,0.4150390625,-0.4908447265625,-0.05343511450381679,-3.2900763358778624,-0.10687022900763359,0.001791238784790039
0.884521484375,0.418212890625,-0.4918212890625,0.0,-3.3206106870229006,-0.16793893129770993,0.0017914772033691406
0.885986328125,0.409912109375,-0.4940185546875,0.09923664122137404,-3.50381679389313,-0.19083969465648856,0.001821279525756836
0.875244140625,0.41455078125,-0.4932861328125,0.0,-3.2900763358778624,-0.05343511450381679,0.0018308162689208984
0.8818359375,0.411376953125,-0.4949951171875,0.007633587786259542,-3.183206106870229,-0.1297709923664122,0.0017943382263183594
0.88232421875,0.41357421875,-0.4940185546875,0.11450381679389313,-3.2061068702290076,-0.11450381679389313,0.0017931461334228516
0.88720703125,0.416748046875,-0.4947509765625,0.09923664122137404,-3.3969465648854964,-0.05343511450381679,0.0018153190612792969
0.884521484375,0.41162109375,-0.4854736328125,-0.03816793893129771,-3.2061068702290076,-0.15267175572519084,0.00179290771484375
0.883056640625,0.41357421875,-0.4903564453125,0.04580152671755725,-3.2290076335877864,-0.0916030534351145,0.0017936229705810547
0.881591796875,0.41455078125,-0.4996337890625,0.05343511450381679,-3.0229007633587788,-0.04580152671755725,0.0017905235290527344
0.879150390625,0.4130859375,-0.4962158203125,-0.007633587786259542,-3.282442748091603,-0.2824427480916031,0.0017931461334228516
0.880615234375,0.417236328125,-0.4976806640625,0.061068702290076333,-3.3893129770992365,-0.1297709923664122,0.0017931461334228516
0.877197265625,0.415771484375,-0.5018310546875,0.007633587786259542,-3.351145038167939,0.0,0.0017924308776855469
0.88330078125,0.413330078125,-0.4932861328125,0.11450381679389313,-3.3587786259541983,0.007633587786259542,0.001791238784790039
0.88623046875,0.415771484375,-0.4957275390625,0.1297709923664122,-3.4122137404580153,-0.2748091603053435,0.0017914772033691406
0.88623046875,0.40673828125,-0.4952392578125,-0.022900763358778626,-3.122137404580153,-0.04580152671755725,0.0017924308776855469
0.88623046875,0.41259765625,-0.4954833984375,0.21374045801526717,-3.145038167938931,-0.0916030534351145,0.001791238784790039
0.888427734375,0.413330078125,-0.4947509765625,0.0,-3.3206106870229006,-0.16030534351145037,0.0017936229705810547
0.884765625,0.41455078125,-0.4945068359375,0.0916030534351145,-3.236641221374046,0.04580152671755725,0.0017888545989990234
0.886474609375,0.413818359375,-0.4974365234375,0.16793893129770993,-3.099236641221374,-0.030534351145038167,0.0017914772033691406
0.888671875,0.4130859375,-0.4959716796875,-0.04580152671755725,-2.969465648854962,-0.12213740458015267,0.0017919540405273438
0.885498046875,0.4091796875,-0.4967041015625,0.2366412213740458,-3.404580152671756,-0.25190839694656486,0.001791238784790039
0.881103515625,0.415283203125,-0.4945068359375,0.03816793893129771,-3.2290076335877864,-0.16793893129770993,0.0019278526306152344
0.88623046875,0.41552734375,-0.4927978515625,0.15267175572519084,-3.312977099236641,-0.1984732824427481,0.0017976760864257812
0.883544921875,0.416015625,-0.4976806640625,0.007633587786259542,-3.282442748091603,0.08396946564885496,0.0017933845520019531
0.877685546875,0.409912109375,-0.4993896484375,0.10687022900763359,-3.2900763358778624,-0.007633587786259542,0.0017914772033691406
0.8818359375,0.414794921875,-0.5037841796875,0.183206106870229,-3.6030534351145036,-0.1984732824427481,0.0017924308776855469
0.88818359375,0.412353515625,-0.4989013671875,0.21374045801526717,-3.3206106870229006,-0.07633587786259542,0.0017914772033691406
0.884033203125,0.415283203125,-0.4967041015625,0.007633587786259542,-3.404580152671756,-0.11450381679389313,0.0017924308776855469
0.884521484375,0.413818359375,-0.4896240234375,0.030534351145038167,-3.1297709923664123,-0.16793893129770993,0.001791238784790039
0.885986328125,0.415283203125,-0.4971923828125,0.05343511450381679,-3.282442748091603,-0.007633587786259542,0.0017921924591064453
0.889892578125,0.416259765625,-0.4952392578125,-0.015267175572519083,-3.2977099236641223,-0.1984732824427481,0.0017910003662109375
0.890869140625,0.4150390625,-0.4986572265625,0.04580152671755725,-3.198473282442748,-0.2900763358778626,0.00179290771484375
0.8916015625,0.41064453125,-0.4962158203125,0.16030534351145037,-3.4885496183206106,-0.08396946564885496,0.0017971992492675781
0.8828125,0.414306640625,-0.5028076171875,0.0916030534351145,-3.4427480916030535,-0.11450381679389313,0.0017926692962646484
0.880615234375,0.417236328125,-0.4954833984375,0.030534351145038167,-3.4198473282442747,0.022900763358778626,0.0017926692962646484
0.876220703125,0.40673828125,-0.4957275390625,-0.0916030534351145,-3.145038167938931,0.09923664122137404,0.0017914772033691406
0.88623046875,0.41357421875,-0.5013427734375,0.0916030534351145,-3.030534351145038,-0.22137404580152673,0.0017926692962646484
0.885009765625,0.41552734375,-0.5001220703125,0.10687022900763359,-3.2748091603053435,-0.0916030534351145,0.0017902851104736328
0.8818359375,0.41015625,-0.4976806640625,0.030534351145038167,-3.3206106870229006,-0.05343511450381679,0.0017921924591064453
0.8828125,0.41357421875,-0.4952392578125,-0.03816793893129771,-3.236641221374046,-0.1984732824427481,0.0017905235290527344
0.884521484375,0.41259765625,-0.5003662109375,0.183206106870229,-3.183206106870229,-0.11450381679389313,0.0017910003662109375
0.885986328125,0.413818359375,-0.4981689453125,0.030534351145038167,-3.366412213740458,-0.15267175572519084,0.0017921924591064453
0.8857421875,0.411865234375,-0.5001220703125,0.022900763358778626,-3.312977099236641,0.10687022900763359,0.001791238784790039
0.878173828125,0.416259765625,-0.4886474609375,0.07633587786259542,-3.183206106870229,-0.061068702290076333,0.0017914772033691406
0.885498046875,0.408935546875,-0.5008544921875,0.15267175572519084,-3.267175572519084,0.0,0.0017910003662109375
0.881591796875,0.41357421875,-0.4942626953125,0.1984732824427481,-3.3282442748091605,0.06870229007633588,0.001790761947631836
0.876953125,0.413818359375,-0.4957275390625,-0.015267175572519083,-3.3969465648854964,-0.022900763358778626,0.001791238784790039
0.883056640625,0.419189453125,-0.4935302734375,-0.07633587786259542,-3.435114503816794,-0.015267175572519083,0.00179290771484375
0.88623046875,0.4111328125,-0.4971923828125,-0.2900763358778626,-3.435114503816794,-0.15267175572519084,0.0017910003662109375
0.878662109375,0.42236328125,-0.4986572265625,0.09923664122137404,-3.282442748091603,-0.20610687022900764,0.0017917156219482422
0.881103515625,0.412353515625,-0.5040283203125,0.19083969465648856,-3.2748091603053435,-0.03816793893129771,0.001790761947631836
0.8798828125,0.41064453125,-0.4952392578125,-0.030534351145038167,-3.2748091603053435,-0.061068702290076333,0.0017917156219482422
0.878662109375,0.4091796875,-0.4986572265625,0.022900763358778626,-3.381679389312977,0.007633587786259542,0.0017933845520019531
0.888671875,0.41015625,-0.5008544921875,0.15267175572519084,-3.3206106870229006,-0.1297709923664122,0.0017917156219482422
0.878662109375,0.415283203125,-0.4984130859375,0.10687022900763359,-3.3587786259541983,0.0916030534351145,0.0017914772033691406
0.888671875,0.408203125,-0.5003662109375,0.007633587786259542,-3.3740458015267176,-0.061068702290076333,0.001791238784790039
0.8828125,0.4072265625,-0.4913330078125,0.10687022900763359,-3.366412213740458,-0.007633587786259542,0.0017931461334228516
0.881103515625,0.41259765625,-0.5025634765625,0.03816793893129771,-3.5877862595419847,-0.1450381679389313,0.0017898082733154297
0.884033203125,0.417724609375,-0.4947509765625,-0.04580152671755725,-3.5419847328244276,-0.16793893129770993,0.0017914772033691406
0.88623046875,0.417724609375,-0.4886474609375,0.007633587786259542,-3.267175572519084,-0.17557251908396945,0.0017917156219482422
0.885986328125,0.41064453125,-0.4935302734375,-0.08396946564885496,-3.068702290076336,-0.22137404580152673,0.001791238784790039
0.883056640625,0.4111328125,-0.4937744140625,-0.061068702290076333,-3.4656488549618323,-0.015267175572519083,0.0017914772033691406
0.889404296875,0.417236328125,-0.4930419921875,0.007633587786259542,-3.404580152671756,0.022900763358778626,0.0017917156219482422
0.886474609375,0.41357421875,-0.4964599609375,0.061068702290076333,-3.1908396946564888,-0.1984732824427481,0.0017917156219482422
0.882080078125,0.409912109375,-0.4979248046875,0.04580152671755725,-3.3740458015267176,-0.007633587786259542,0.0017921924591064453
0.88525390625,0.4091796875,-0.4959716796875,0.1297709923664122,-3.4732824427480917,0.007633587786259542,0.0017921924591064453
0.87890625,0.413330078125,-0.5013427734375,0.015267175572519083,-3.633587786259542,-0.007633587786259542,0.0017902851104736328
0.886474609375,0.412353515625,-0.4954833984375,0.09923664122137404,-3.5419847328244276,-0.15267175572519084,0.001813650131225586
0.8818359375,0.4169921875,-0.4947509765625,0.061068702290076333,-3.4198473282442747,-0.0916030534351145,0.0018036365509033203
0.884765625,0.420166015625,-0.5018310546875,0.03816793893129771,-3.2748091603053435,-0.061068702290076333,0.0017926692962646484
0.885498046875,0.416748046875,-0.4986572265625,0.015267175572519083,-3.4198473282442747,-0.1984732824427481,0.0018308162689208984
0.88330078125,0.410888671875,-0.4891357421875,-0.007633587786259542,-3.068702290076336,-0.0916030534351145,0.0017917156219482422
0.880859375,0.414794921875,-0.4945068359375,0.007633587786259542,-3.198473282442748,-0.16030534351145037,0.0017921924591064453
0.88330078125,0.411865234375,-0.4932861328125,0.030534351145038167,-3.33587786259542,-0.0916030534351145,0.0017921924591064453
0.887939453125,0.415283203125,-0.4888916015625,0.030534351145038167,-3.3740458015267176,-0.11450381679389313,0.00179290771484375
0.88330078125,0.412841796875,-0.4954833984375,0.0916030534351145,-3.50381679389313,-0.007633587786259542,0.001791238784790039
0.885498046875,0.413330078125,-0.4864501953125,0.22137404580152673,-3.519083969465649,0.1984732824427481,0.0017919540405273438
0.878173828125,0.4140625,-0.4981689453125,0.13740458015267176,-3.3282442748091605,-0.015267175572519083,0.0017902851104736328
0.882568359375,0.41455078125,-0.4937744140625,0.13740458015267176,-3.5114503816793894,-0.22137404580152673,0.0017936229705810547
0.88623046875,0.41796875,-0.4947509765625,0.16030534351145037,-3.3587786259541983,-0.03816793893129771,0.001790761947631836
0.88720703125,0.412841796875,-0.4937744140625,-0.0916030534351145,-3.366412213740458,-0.12213740458015267,0.0017924308776855469
0.89208984375,0.4150390625,-0.5015869140625,0.007633587786259542,-3.3206106870229006,-0.16030534351145037,0.0017924308776855469
0.87890625,0.4111328125,-0.4974365234375,-0.04580152671755725,-3.1908396946564888,0.0,0.0017917156219482422
0.88330078125,0.412841796875,-0.5023193359375,0.0,-3.1068702290076335,-0.08396946564885496,0.0017917156219482422
0.87548828125,0.408447265625,-0.4986572265625,-0.13740458015267176,-3.3893129770992365,-0.29770992366412213,0.0017900466918945312
0.88427734375,0.409423828125,-0.5008544921875,0.007633587786259542,-3.4427480916030535,-0.03816793893129771,0.0017924308776855469
0.883544921875,0.41064453125,-0.4869384765625,0.1450381679389313,-3.404580152671756,-0.06870229007633588,0.001924276351928711
0.878173828125,0.408935546875,-0.4879150390625,0.015267175572519083,-3.435114503816794,-0.08396946564885496,0.0017981529235839844
0.88623046875,0.416259765625,-0.4935302734375,0.05343511450381679,-3.564885496183206,0.0,0.0017914772033691406
0.8837890625,0.41357421875,-0.4967041015625,-0.030534351145038167,-3.381679389312977,-0.022900763358778626,0.0017910003662109375
0.8857421875,0.41064453125,-0.4915771484375,0.015267175572519083,-3.2442748091603053,-0.022900763358778626,0.001790761947631836
0.88232421875,0.408447265625,-0.4937744140625,0.0,-3.2442748091603053,0.0,0.001791238784790039
0.880126953125,0.4111328125,-0.4976806640625,0.022900763358778626,-3.3969465648854964,-0.10687022900763359,0.0017879009246826172
0.882568359375,0.412353515625,-0.4923095703125,0.022900763358778626,-3.114503816793893,-0.20610687022900764,0.0017910003662109375
0.8837890625,0.415283203125,-0.5023193359375,-0.05343511450381679,-3.282442748091603,-0.04580152671755725,0.0017919540405273438
0.882568359375,0.41259765625,-0.4993896484375,0.12213740458015267,-3.1297709923664123,-0.022900763358778626,0.0017917156219482422
0.88330078125,0.413330078125,-0.4949951171875,0.08396946564885496,-3.6259541984732824,0.0,0.0017917156219482422
0.882568359375,0.416015625,-0.5020751953125,0.25190839694656486,-3.3969465648854964,-0.06870229007633588,0.0017864704132080078
0.881591796875,0.416748046875,-0.5001220703125,0.25190839694656486,-3.5801526717557253,0.0,0.0017910003662109375
0.884521484375,0.41748046875,-0.4979248046875,0.183206106870229,-3.7404580152671754,-0.061068702290076333,0.0017910003662109375
0.886474609375,0.416748046875,-0.4937744140625,0.05343511450381679,-3.5114503816793894,-0.183206106870229,0.0017910003662109375
0.88427734375,0.414794921875,-0.4967041015625,0.09923664122137404,-3.122137404580153,-0.03816793893129771,0.0017917156219482422
0.887939453125,0.4140625,-0.4949951171875,0.11450381679389313,-3.450381679389313,-0.17557251908396945,0.0017910003662109375
0.885986328125,0.40673828125,-0.4962158203125,-0.1297709923664122,-3.3282442748091605,-0.3435114503816794,0.001791238784790039
0.8828125,0.408447265625,-0.4971923828125,0.030534351145038167,-3.1526717557251906,-0.0916030534351145,0.001791238784790039
0.88330078125,0.41748046875,-0.4869384765625,-0.22900763358778625,-3.5419847328244276,-0.3282442748091603,0.0017914772033691406
0.880615234375,0.40966796875,-0.4920654296875,-0.05343511450381679,-3.3893129770992365,0.06870229007633588,0.0017905235290527344
0.879638671875,0.414794921875,-0.4947509765625,0.12213740458015267,-3.2900763358778624,-0.19083969465648856,0.001791238784790039
0.8876953125,0.41064453125,-0.4866943359375,0.061068702290076333,-3.1908396946564888,-0.061068702290076333,0.0017910003662109375
0.88818359375,0.41064453125,-0.4891357421875,0.030534351145038167,-3.4198473282442747,0.1984732824427481,0.0017914772033691406
0.88427734375,0.410888671875,-0.4954833984375,0.07633587786259542,-3.50381679389313,-0.061068702290076333,0.001791238784790039
0.88037109375,0.416259765625,-0.4930419921875,0.11450381679389313,-3.2213740458015265,-0.03816793893129771,0.0017919540405273438
0.888427734375,0.41064453125,-0.4864501953125,0.04580152671755725,-3.4427480916030535,-0.09923664122137404,0.0017900466918945312
0.888671875,0.41552734375,-0.4976806640625,0.022900763358778626,-3.49618320610687,-0.1450381679389313,0.0017876625061035156
0.885498046875,0.414306640625,-0.4962158203125,0.06870229007633588,-3.282442748091603,-0.3969465648854962,0.0018253326416015625
0.8837890625,0.416015625,-0.4974365234375,-0.030534351145038167,-3.2213740458015265,-0.21374045801526717,0.0017917156219482422
0.885009765625,0.412353515625,-0.4901123046875,0.21374045801526717,-3.1068702290076335,-0.007633587786259542,0.0017926692962646484
0.882568359375,0.41748046875,-0.4859619140625,-0.15267175572519084,-3.183206106870229,0.030534351145038167,0.0017898082733154297
0.8857421875,0.4169921875,-0.4967041015625,-0.13740458015267176,-3.3206106870229006,0.0916030534351145,0.0017917156219482422
0.873291015625,0.4150390625,-0.4964599609375,0.08396946564885496,-3.2213740458015265,0.022900763358778626,0.0017905235290527344
0.8896484375,0.4140625,-0.4971923828125,0.09923664122137404,-3.351145038167939,-0.007633587786259542,0.0017905235290527344
0.887939453125,0.416259765625,-0.5045166015625,0.03816793893129771,-3.6030534351145036,0.1450381679389313,0.0017910003662109375
0.88671875,0.411865234375,-0.4893798828125,-0.03816793893129771,-3.282442748091603,-0.32061068702290074,0.0017902851104736328
0.885498046875,0.4228515625,-0.4959716796875,0.030534351145038167,-3.2900763358778624,-0.15267175572519084,0.001790761947631836
0.883056640625,0.4150390625,-0.4940185546875,0.11450381679389313,-3.312977099236641,0.05343511450381679,0.0017910003662109375
0.88232421875,0.41748046875,-0.4903564453125,-0.015267175572519083,-3.16793893129771,-0.19083969465648856,0.001791238784790039
0.885498046875,0.415771484375,-0.4942626953125,0.015267175572519083,-3.198473282442748,-0.19083969465648856,0.0017902851104736328
0.887451171875,0.413818359375,-0.5006103515625,0.06870229007633588,-3.4427480916030535,0.0916030534351145,0.0017914772033691406
0.885009765625,0.4150390625,-0.5025634765625,0.007633587786259542,-3.366412213740458,0.061068702290076333,0.0017895698547363281
0.885009765625,0.406982421875,-0.4962158203125,0.1297709923664122,-3.3282442748091605,-0.09923664122137404,0.0017905235290527344
0.883056640625,0.41845703125,-0.4942626953125,0.061068702290076333,-3.6793893129770994,0.0916030534351145,0.0017914772033691406
0.88037109375,0.4189453125,-0.5003662109375,0.07633587786259542,-3.6106870229007635,0.09923664122137404,0.0017900466918945312
0.88134765625,0.406982421875,-0.4915771484375,0.183206106870229,-3.3282442748091605,0.04580152671755725,0.0017902851104736328
0.883544921875,0.40966796875,-0.4996337890625,0.04580152671755725,-3.4198473282442747,-0.0916030534351145,0.0017902851104736328
0.8896484375,0.413818359375,-0.4971923828125,0.07633587786259542,-3.5114503816793894,-0.17557251908396945,0.0017914772033691406
0.884765625,0.413330078125,-0.4903564453125,0.0,-3.198473282442748,-0.25190839694656486,0.0017900466918945312
0.882568359375,0.41259765625,-0.5025634765625,-0.030534351145038167,-3.2290076335877864,-0.1984732824427481,0.0017948150634765625
0.888916015625,0.4150390625,-0.4954833984375,0.04580152671755725,-3.114503816793893,-0.3435114503816794,0.001790761947631836
0.8857421875,0.414794921875,-0.4971923828125,-0.007633587786259542,-3.3053435114503817,-0.07633587786259542,0.0018029212951660156
0.88232421875,0.414306640625,-0.5054931640625,0.022900763358778626,-3.1297709923664123,-0.09923664122137404,0.0017926692962646484
0.883056640625,0.413818359375,-0.4842529296875,0.007633587786259542,-3.435114503816794,0.0,0.001791238784790039
0.883056640625,0.41357421875,-0.4925537109375,0.15267175572519084,-3.4732824427480917,0.10687022900763359,0.0017902851104736328
0.88330078125,0.41064453125,-0.4893798828125,0.11450381679389313,-3.053435114503817,-0.12213740458015267,0.0017905235290527344
0.886474609375,0.4130859375,-0.4976806640625,0.24427480916030533,-3.3053435114503817,-0.13740458015267176,0.0017910003662109375
0.885986328125,0.413330078125,-0.5018310546875,-0.0916030534351145,-3.33587786259542,-0.0916030534351145,0.0019643306732177734
0.8798828125,0.41748046875,-0.4906005859375,0.05343511450381679,-3.3893129770992365,-0.03816793893129771,0.00180816650390625
0.8818359375,0.41455078125,-0.5035400390625,0.061068702290076333,-3.0916030534351147,0.05343511450381679,0.0017940998077392578
0.887939453125,0.419677734375,-0.4947509765625,-0.05343511450381679,-3.0229007633587788,0.007633587786259542,0.0017955303192138672
0.886474609375,0.42041015625,-0.4952392578125,-0.03816793893129771,-3.381679389312977,-0.11450381679389313,0.0017943382263183594
0.878173828125,0.41259765625,-0.4986572265625,-0.10687022900763359,-3.2213740458015265,-0.2595419847328244,0.0017948150634765625
0.883544921875,0.4169921875,-0.4981689453125,0.061068702290076333,-3.236641221374046,-0.030534351145038167,0.0017943382263183594
0.8818359375,0.416748046875,-0.4967041015625,0.061068702290076333,-3.4427480916030535,0.007633587786259542,0.001916646957397461
0.88232421875,0.410888671875,-0.4998779296875,0.16793893129770993,-3.2900763358778624,-0.13740458015267176,0.0018024444580078125
0.87939453125,0.41748046875,-0.4930419921875,0.16793893129770993,-3.3587786259541983,0.11450381679389313,0.001795053482055664
0.883544921875,0.411865234375,-0.4920654296875,0.10687022900763359,-3.351145038167939,-0.12213740458015267,0.0017940998077392578
0.885498046875,0.408447265625,-0.5010986328125,-0.007633587786259542,-3.068702290076336,-0.05343511450381679,0.001794576644897461
0.882568359375,0.414794921875,-0.4925537109375,0.2900763358778626,-3.0229007633587788,-0.1297709923664122,0.0017940998077392578
0.8857421875,0.412353515625,-0.4964599609375,0.030534351145038167,-3.351145038167939,-0.09923664122137404,0.0017931461334228516
0.881103515625,0.418212890625,-0.4981689453125,0.015267175572519083,-3.3053435114503817,-0.12213740458015267,0.0017933845520019531
0.884765625,0.414306640625,-0.4869384765625,0.11450381679389313,-3.114503816793893,-0.030534351145038167,0.0017931461334228516
0.884033203125,0.419921875,-0.4952392578125,0.022900763358778626,-3.3053435114503817,0.0,0.0017931461334228516
0.88671875,0.416259765625,-0.5010986328125,0.007633587786259542,-3.4580152671755724,0.11450381679389313,0.0017914772033691406
0.888671875,0.41357421875,-0.4879150390625,0.20610687022900764,-3.3282442748091605,-0.13740458015267176,0.0017933845520019531
0.883544921875,0.414306640625,-0.5013427734375,0.2366412213740458,-3.4198473282442747,0.13740458015267176,0.0017926692962646484
0.88525390625,0.409912109375,-0.5010986328125,0.03816793893129771,-3.381679389312977,-0.06870229007633588,0.0017926692962646484
0.884033203125,0.419189453125,-0.4913330078125,-0.015267175572519083,-3.312977099236641,-0.2595419847328244,0.0017940998077392578
0.88232421875,0.418701171875,-0.4930419921875,-0.022900763358778626,-3.3435114503816794,-0.1450381679389313,0.0017926692962646484
0.879150390625,0.412353515625,-0.4903564453125,0.061068702290076333,-3.236641221374046,0.007633587786259542,0.0017940998077392578
0.883544921875,0.4169921875,-0.4998779296875,0.22137404580152673,-3.2595419847328246,-0.3053435114503817,0.0017936229705810547
0.88623046875,0.4111328125,-0.4962158203125,-0.061068702290076333,-3.213740458015267,-0.13740458015267176,0.001834869384765625
0.883056640625,0.42041015625,-0.4901123046875,0.007633587786259542,-3.0229007633587788,-0.24427480916030533,0.001794576644897461
0.88037109375,0.412353515625,-0.5062255859375,-0.015267175572519083,-3.1603053435114505,-0.2366412213740458,0.00179290771484375
0.880126953125,0.410888671875,-0.4910888671875,0.17557251908396945,-3.3282442748091605,0.0,0.0017936229705810547
0.88232421875,0.4169921875,-0.4957275390625,0.20610687022900764,-3.3893129770992365,0.05343511450381679,0.0017910003662109375
0.875732421875,0.41748046875,-0.5023193359375,0.1984732824427481,-3.435114503816794,-0.1297709923664122,0.0017926692962646484
0.88330078125,0.413818359375,-0.4998779296875,0.03816793893129771,-3.450381679389313,-0.061068702290076333,0.00179290771484375
0.8837890625,0.4140625,-0.4976806640625,0.05343511450381679,-3.2595419847328246,0.09923664122137404,0.001794576644897461
0.883544921875,0.42138671875,-0.4893798828125,-0.06870229007633588,-3.114503816793893,0.022900763358778626,0.001791238784790039
0.8818359375,0.416748046875,-0.4940185546875,-0.12213740458015267,-3.351145038167939,-0.29770992366412213,0.0017943382263183594
0.886962890625,0.418701171875,-0.4925537109375,0.10687022900763359,-3.3969465648854964,-0.0916030534351145,0.0017931461334228516
0.886474609375,0.41552734375,-0.5130615234375,0.06870229007633588,-3.4885496183206106,0.007633587786259542,0.0017924308776855469
0.883544921875,0.412353515625,-0.4993896484375,-0.08396946564885496,-3.2519083969465647,-0.183206106870229,0.0017933845520019531
0.880859375,0.41064453125,-0.4930419921875,-0.015267175572519083,-3.2595419847328246,-0.09923664122137404,0.0017931461334228516
0.88134765625,0.410400390625,-0.4947509765625,0.06870229007633588,-3.2213740458015265,-0.15267175572519084,0.0017931461334228516
0.880859375,0.413330078125,-0.5081787109375,0.16793893129770993,-3.4732824427480917,-0.15267175572519084,0.0017926692962646484
0.885986328125,0.411376953125,-0.4927978515625,0.015267175572519083,-3.267175572519084,0.022900763358778626,0.0017933845520019531
0.8828125,0.41845703125,-0.5062255859375,-0.08396946564885496,-3.366412213740458,-0.007633587786259542,0.0017917156219482422
0.880126953125,0.41650390625,-0.4971923828125,0.022900763358778626,-3.3893129770992365,0.08396946564885496,0.0017931461334228516
0.891357421875,0.415283203125,-0.4957275390625,-0.007633587786259542,-3.2519083969465647,-0.12213740458015267,0.0017926692962646484
0.882568359375,0.416748046875,-0.4974365234375,-0.030534351145038167,-3.381679389312977,-0.07633587786259542,0.0018072128295898438
0.881591796875,0.422119140625,-0.4945068359375,0.1450381679389313,-3.2748091603053435,-0.13740458015267176,0.0017943382263183594
0.8818359375,0.416748046875,-0.4969482421875,-0.007633587786259542,-3.0076335877862594,-0.030534351145038167,0.00179290771484375
0.884765625,0.414306640625,-0.5076904296875,-0.007633587786259542,-3.282442748091603,0.11450381679389313,0.0017938613891601562
0.8798828125,0.41357421875,-0.4998779296875,-0.03816793893129771,-3.2748091603053435,0.0,0.00179290771484375
0.884033203125,0.413330078125,-0.4923095703125,0.007633587786259542,-3.0,-0.06870229007633588,0.0017910003662109375
0.885986328125,0.416015625,-0.4996337890625,0.1984732824427481,-3.312977099236641,-0.015267175572519083,0.0017914772033691406
0.88232421875,0.414306640625,-0.4854736328125,0.015267175572519083,-3.5114503816793894,-0.16030534351145037,0.0017936229705810547
0.8818359375,0.4130859375,-0.4925537109375,0.015267175572519083,-3.2900763358778624,-0.061068702290076333,0.0017924308776855469
0.8798828125,0.412109375,-0.4947509765625,-0.05343511450381679,-3.282442748091603,-0.08396946564885496,0.0017926692962646484
0.8818359375,0.4169921875,-0.4940185546875,-0.030534351145038167,-3.2900763358778624,-0.366412213740458,0.00179290771484375
0.88330078125,0.413330078125,-0.4927978515625,-0.07633587786259542,-3.2213740458015265,-0.20610687022900764,0.0017926692962646484
0.880126953125,0.4169921875,-0.4986572265625,-0.05343511450381679,-3.2442748091603053,-0.11450381679389313,0.00179290771484375
0.8828125,0.416015625,-0.5028076171875,0.015267175572519083,-3.053435114503817,-0.07633587786259542,0.0017921924591064453
0.88623046875,0.412353515625,-0.4932861328125,0.0,-3.282442748091603,-0.20610687022900764,0.0017924308776855469
0.880615234375,0.413330078125,-0.5001220703125,0.10687022900763359,-3.3893129770992365,-0.15267175572519084,0.0017914772033691406
0.88427734375,0.40966796875,-0.4949951171875,0.03816793893129771,-3.312977099236641,0.061068702290076333,0.0017933845520019531
0.881103515625,0.40966796875,-0.4915771484375,-0.03816793893129771,-3.282442748091603,0.03816793893129771,0.0017914772033691406
0.884033203125,0.40625,-0.4964599609375,0.11450381679389313,-3.4656488549618323,0.061068702290076333,0.0017926692962646484
0.8837890625,0.414794921875,-0.4976806640625,0.0,-3.618320610687023,-0.05343511450381679,0.0017917156219482422
0.88330078125,0.41748046875,-0.4896240234375,0.16030534351145037,-3.3435114503816794,-0.20610687022900764,0.0017905235290527344
0.88623046875,0.413330078125,-0.4913330078125,-0.0916030534351145,-3.1908396946564888,-0.07633587786259542,0.0017926692962646484
0.881591796875,0.41259765625,-0.5001220703125,-0.030534351145038167,-3.236641221374046,-0.2900763358778626,0.0017926692962646484
0.8779296875,0.4130859375,-0.4952392578125,0.022900763358778626,-3.2442748091603053,-0.07633587786259542,0.0017926692962646484
0.8857421875,0.410888671875,-0.4925537109375,0.04580152671755725,-3.2900763358778624,-0.2366412213740458,0.0017924308776855469
0.883544921875,0.4140625,-0.4954833984375,0.007633587786259542,-3.33587786259542,-0.08396946564885496,0.0018041133880615234
0.8857421875,0.410888671875,-0.4891357421875,-0.05343511450381679,-3.366412213740458,0.0,0.0017919540405273438
0.8828125,0.419189453125,-0.5001220703125,0.0,-3.3435114503816794,-0.061068702290076333,0.0018763542175292969
0.88427734375,0.416015625,-0.4954833984375,0.061068702290076333,-3.5343511450381677,0.05343511450381679,0.0017952919006347656
0.889404296875,0.4208984375,-0.4849853515625,0.16030534351145037,-3.564885496183206,-0.030534351145038167,0.0017933845520019531
0.887939453125,0.418212890625,-0.4910888671875,0.20610687022900764,-3.2977099236641223,-0.08396946564885496,0.0017926692962646484
0.880859375,0.4169921875,-0.4962158203125,0.15267175572519084,-3.381679389312977,-0.11450381679389313,0.0017936229705810547
0.88671875,0.413330078125,-0.4930419921875,-0.04580152671755725,-3.3282442748091605,-0.21374045801526717,0.00179290771484375
0.883544921875,0.412841796875,-0.4925537109375,-0.007633587786259542,-3.267175572519084,0.0,0.0017926692962646484
0.877197265625,0.412353515625,-0.4976806640625,0.022900763358778626,-3.099236641221374,-0.11450381679389313,0.0017914772033691406
0.886962890625,0.41162109375,-0.4957275390625,-0.12213740458015267,-3.183206106870229,-0.3511450381679389,0.0017931461334228516
0.882568359375,0.406982421875,-0.4952392578125,0.03816793893129771,-3.2213740458015265,-0.2900763358778626,0.0017936229705810547
0.879638671875,0.413330078125,-0.4962158203125,0.16030534351145037,-3.2290076335877864,-0.10687022900763359,0.0017924308776855469
0.883544921875,0.413818359375,-0.5001220703125,0.04580152671755725,-3.16793893129771,-0.22137404580152673,0.0017936229705810547
0.883056640625,0.418212890625,-0.4964599609375,0.22900763358778625,-3.427480916030534,-0.1984732824427481,0.0017924308776855469
0.87939453125,0.411376953125,-0.4991455078125,0.015267175572519083,-3.099236641221374,0.15267175572519084,0.0017921924591064453
0.890869140625,0.408447265625,-0.4937744140625,0.09923664122137404,-3.4427480916030535,0.022900763358778626,0.0017921924591064453
0.88427734375,0.410888671875,-0.4903564453125,0.07633587786259542,-3.49618320610687,-0.05343511450381679,0.0017921924591064453
0.888427734375,0.41748046875,-0.4996337890625,0.06870229007633588,-3.053435114503817,-0.1297709923664122,0.0017926692962646484
0.880859375,0.41845703125,-0.4954833984375,0.11450381679389313,-3.435114503816794,-0.3435114503816794,0.0017921924591064453
0.88818359375,0.408935546875,-0.4927978515625,0.0916030534351145,-3.49618320610687,-0.2900763358778626,0.0017931461334228516
0.88037109375,0.418701171875,-0.4957275390625,0.015267175572519083,-3.1908396946564888,-0.3053435114503817,0.0017921924591064453
0.88134765625,0.418701171875,-0.4964599609375,-0.03816793893129771,-3.0763358778625953,0.05343511450381679,0.0017926692962646484
0.88671875,0.408935546875,-0.4976806640625,-0.007633587786259542,-3.404580152671756,-0.1450381679389313,0.0017914772033691406
0.888671875,0.415771484375,-0.4981689453125,0.17557251908396945,-3.1908396946564888,0.007633587786259542,0.0017931461334228516
0.883056640625,0.4140625,-0.5001220703125,0.09923664122137404,-3.427480916030534,0.22137404580152673,0.0017924308776855469
0.880859375,0.411376953125,-0.4984130859375,-0.030534351145038167,-3.4580152671755724,0.03816793893129771,0.0017917156219482422
0.880859375,0.41015625,-0.4937744140625,0.08396946564885496,-3.33587786259542,0.20610687022900764,0.0017936229705810547
0.888671875,0.413330078125,-0.4913330078125,0.007633587786259542,-3.648854961832061,0.08396946564885496,0.0017917156219482422
0.881591796875,0.414306640625,-0.4976806640625,-0.10687022900763359,-3.2900763358778624,-0.33587786259541985,0.0017919540405273438
0.8759765625,0.42041015625,-0.4986572265625,0.022900763358778626,-3.3206106870229006,-0.21374045801526717,0.00179290771484375
0.883544921875,0.415283203125,-0.4918212890625,0.12213740458015267,-3.3053435114503817,-0.17557251908396945,0.0017933845520019531
0.881103515625,0.41650390625,-0.4925537109375,-0.015267175572519083,-3.4427480916030535,-0.16030534351145037,0.0017936229705810547
0.884521484375,0.4189453125,-0.4969482421875,-0.1297709923664122,-3.3969465648854964,-0.08396946564885496,0.0017933845520019531
0.87939453125,0.409912109375,-0.4998779296875,-0.030534351145038167,-3.145038167938931,-0.15267175572519084,0.0017921924591064453
0.880859375,0.414794921875,-0.4962158203125,0.10687022900763359,-3.282442748091603,0.0,0.00179290771484375
0.882568359375,0.409912109375,-0.4901123046875,0.007633587786259542,-3.2595419847328246,0.0,0.0017898082733154297
0.88720703125,0.412109375,-0.4932861328125,-0.06870229007633588,-3.572519083969466,-0.030534351145038167,0.0017905235290527344
0.88671875,0.41259765625,-0.5035400390625,-0.0916030534351145,-3.5114503816793894,0.03816793893129771,0.00179290771484375
0.888671875,0.417236328125,-0.4998779296875,-0.07633587786259542,-3.381679389312977,0.05343511450381679,0.0017919540405273438
0.884521484375,0.41552734375,-0.4908447265625,0.16030534351145037,-3.236641221374046,-0.20610687022900764,0.00179290771484375
0.883544921875,0.41943359375,-0.4974365234375,-0.061068702290076333,-3.2977099236641223,-0.04580152671755725,0.0017919540405273438
0.887451171875,0.416015625,-0.4979248046875,-0.05343511450381679,-3.1603053435114505,-0.12213740458015267,0.0017962455749511719
0.878662109375,0.40673828125,-0.4918212890625,0.022900763358778626,-3.099236641221374,-0.19083969465648856,0.0017900466918945312
0.88671875,0.412353515625,-0.4981689453125,0.07633587786259542,-3.1908396946564888,-0.12213740458015267,0.0018112659454345703
0.881591796875,0.41064453125,-0.4932861328125,-0.04580152671755725,-3.2977099236641223,-0.04580152671755725,0.0017936229705810547
0.881103515625,0.4130859375,-0.4981689453125,0.04580152671755725,-3.4885496183206106,-0.19083969465648856,0.00180816650390625
0.882080078125,0.41796875,-0.4920654296875,0.1297709923664122,-3.404580152671756,0.0,0.0017995834350585938
0.8837890625,0.408447265625,-0.4910888671875,-0.061068702290076333,-3.50381679389313,-0.08396946564885496,0.0017926692962646484
0.88525390625,0.413818359375,-0.5081787109375,0.0,-3.618320610687023,0.09923664122137404,0.0017943382263183594
0.880859375,0.413330078125,-0.4991455078125,0.022900763358778626,-3.2748091603053435,-0.08396946564885496,0.0017914772033691406
0.880859375,0.4130859375,-0.4971923828125,-0.07633587786259542,-3.1908396946564888,-0.15267175572519084,0.0017936229705810547
0.87939453125,0.41455078125,-0.4989013671875,-0.12213740458015267,-3.267175572519084,0.0,0.0017926692962646484
0.880615234375,0.410888671875,-0.5040283203125,0.022900763358778626,-3.0076335877862594,-0.05343511450381679,0.0017914772033691406
0.885009765625,0.410888671875,-0.5001220703125,0.007633587786259542,-3.1526717557251906,-0.37404580152671757,0.00179290771484375
0.879638671875,0.41845703125,-0.4996337890625,0.04580152671755725,-3.4656488549618323,-0.1984732824427481,0.0017933845520019531
0.88427734375,0.418212890625,-0.4935302734375,0.007633587786259542,-3.450381679389313,-0.20610687022900764,0.0017931461334228516
0.886474609375,0.4169921875,-0.4991455078125,0.06870229007633588,-3.4732824427480917,-0.11450381679389313,0.0017936229705810547
0.885009765625,0.413818359375,-0.4957275390625,-0.1984732824427481,-3.2442748091603053,0.16030534351145037,0.0017940998077392578
0.888916015625,0.417724609375,-0.4971923828125,0.06870229007633588,-3.4885496183206106,-0.07633587786259542,0.0017926692962646484
0.886474609375,0.414794921875,-0.4923095703125,0.10687022900763359,-3.312977099236641,-0.08396946564885496,0.0017940998077392578
0.878173828125,0.41259765625,-0.4898681640625,0.007633587786259542,-3.2290076335877864,-0.13740458015267176,0.0017926692962646484
0.88232421875,0.41650390625,-0.4984130859375,-0.19083969465648856,-3.2595419847328246,-0.29770992366412213,0.0017936229705810547
0.880615234375,0.416015625,-0.4952392578125,-0.10687022900763359,-3.053435114503817,-0.09923664122137404,0.0017936229705810547
0.8759765625,0.41455078125,-0.4952392578125,0.0,-3.2213740458015265,-0.183206106870229,0.0017924308776855469
0.883056640625,0.412841796875,-0.4986572265625,0.1450381679389313,-3.2213740458015265,-0.25190839694656486,0.0017921924591064453
0.87646484375,0.41943359375,-0.4989013671875,-0.022900763358778626,-3.4122137404580153,0.015267175572519083,0.0017933845520019531
0.883056640625,0.42333984375,-0.4957275390625,-0.16793893129770993,-3.5267175572519083,0.10687022900763359,0.0018715858459472656
0.8876953125,0.416748046875,-0.4984130859375,0.007633587786259542,-3.648854961832061,-0.11450381679389313,0.0017974376678466797
0.88134765625,0.41357421875,-0.4886474609375,0.04580152671755725,-3.3053435114503817,-0.183206106870229,0.001794576644897461
0.888916015625,0.42041015625,-0.4881591796875,-0.06870229007633588,-3.16793893129771,0.0,0.00179290771484375
0.880859375,0.423095703125,-0.4896240234375,0.08396946564885496,-3.366412213740458,-0.03816793893129771,0.0017921924591064453
0.8779296875,0.418701171875,-0.4969482421875,0.0,-3.366412213740458,-0.29770992366412213,0.0021359920501708984
0.877685546875,0.4189453125,-0.4901123046875,-0.09923664122137404,-3.1526717557251906,-0.061068702290076333,0.0018055438995361328
0.88623046875,0.412353515625,-0.4913330078125,0.0,-3.427480916030534,-0.05343511450381679,0.0017926692962646484
0.886962890625,0.41796875,-0.5013427734375,0.061068702290076333,-3.5343511450381677,-0.07633587786259542,0.0017924308776855469
0.884521484375,0.415283203125,-0.4927978515625,-0.08396946564885496,-3.2595419847328246,-0.16030534351145037,0.0017938613891601562
0.87939453125,0.414306640625,-0.4942626953125,0.11450381679389313,-3.236641221374046,-0.17557251908396945,0.001794576644897461
0.883544921875,0.4130859375,-0.4913330078125,-0.0916030534351145,-3.648854961832061,-0.09923664122137404,0.0017936229705810547
0.889404296875,0.417724609375,-0.4976806640625,-0.04580152671755725,-3.5343511450381677,-0.022900763358778626,0.0017931461334228516
0.886962890625,0.4130859375,-0.4932861328125,0.0,-3.3053435114503817,-0.22900763358778625,0.001798868179321289
0.878173828125,0.413330078125,-0.4962158203125,0.0,-3.4427480916030535,0.0,0.0017919540405273438
0.880615234375,0.415283203125,-0.5013427734375,0.007633587786259542,-3.5343511450381677,-0.13740458015267176,0.001790761947631836
0.888916015625,0.41650390625,-0.4947509765625,-0.10687022900763359,-3.4732824427480917,-0.17557251908396945,0.0017921924591064453
0.883056640625,0.409912109375,-0.4979248046875,0.10687022900763359,-3.3282442748091605,-0.04580152671755725,0.0017940998077392578
0.881591796875,0.410888671875,-0.4925537109375,-0.0916030534351145,-3.183206106870229,-0.03816793893129771,0.00179290771484375
0.883544921875,0.4140625,-0.4949951171875,0.06870229007633588,-3.404580152671756,-0.17557251908396945,0.00179290771484375
0.882080078125,0.41357421875,-0.5047607421875,0.04580152671755725,-3.3435114503816794,-0.1297709923664122,0.0017926692962646484
0.8818359375,0.41650390625,-0.4908447265625,0.25190839694656486,-3.3206106870229006,-0.007633587786259542,0.0017936229705810547
0.886474609375,0.4111328125,-0.4915771484375,0.08396946564885496,-3.435114503816794,-0.07633587786259542,0.0017931461334228516
0.884033203125,0.414794921875,-0.4989013671875,0.015267175572519083,-3.595419847328244,-0.10687022900763359,0.0017924308776855469
0.880859375,0.418701171875,-0.5030517578125,0.06870229007633588,-3.450381679389313,-0.13740458015267176,0.0017936229705810547
0.882080078125,0.411376953125,-0.4989013671875,-0.022900763358778626,-3.198473282442748,-0.1984732824427481,0.0017938613891601562
0.885009765625,0.414306640625,-0.5047607421875,-0.11450381679389313,-3.2213740458015265,-0.13740458015267176,0.0017943382263183594
0.880615234375,0.415771484375,-0.4862060546875,-0.09923664122137404,-3.366412213740458,-0.183206106870229,0.0017919540405273438
0.8828125,0.4130859375,-0.4976806640625,0.08396946564885496,-3.3435114503816794,0.08396946564885496,0.00179290771484375
0.882568359375,0.4130859375,-0.5018310546875,0.06870229007633588,-3.3435114503816794,-0.12213740458015267,0.001791238784790039
0.8857421875,0.412109375,-0.4971923828125,0.03816793893129771,-3.3893129770992365,0.022900763358778626,0.0017921924591064453
0.88525390625,0.4140625,-0.4947509765625,0.09923664122137404,-3.5419847328244276,0.10687022900763359,0.0017924308776855469
0.873779296875,0.4150390625,-0.5006103515625,0.16793893129770993,-3.404580152671756,-0.007633587786259542,0.0017921924591064453
0.880859375,0.412109375,-0.5025634765625,0.12213740458015267,-3.1755725190839694,-0.09923664122137404,0.0017933845520019531
