emg_0,emg_1,emg_2,emg_3,emg_4,acc_x,acc_y,acc_z,gyro_x,gyro_y,gyro_z,dt
1031,0.1376953125,-0.0374755859375,-1.1988525390625,-0.22900763358778625,-3.564885496183206,0.08396946564885496,0.17442536354064941
1486,0.14404296875,-0.0440673828125,-1.1878662109375,-0.07633587786259542,-3.3893129770992365,0.007633587786259542,0.003270864486694336
1442,0.138916015625,-0.0384521484375,-1.1983642578125,-0.09923664122137404,-3.33587786259542,0.32061068702290074,0.0040285587310791016
1390,0.14453125,-0.0372314453125,-1.1964111328125,0.030534351145038167,-3.763358778625954,-0.1450381679389313,0.002676725387573242
1345,0.1396484375,-0.0391845703125,-1.1944580078125,-0.10687022900763359,-3.3282442748091605,0.11450381679389313,0.002708911895751953
1304,0.143310546875,-0.0401611328125,-1.1878662109375,-0.19083969465648856,-3.49618320610687,-0.09923664122137404,0.0025844573974609375
1263,0.136962890625,-0.0389404296875,-1.1881103515625,-0.06870229007633588,-3.480916030534351,0.0,0.002529621124267578
1221,0.148193359375,-0.0347900390625,-1.1898193359375,-0.022900763358778626,-3.3282442748091605,-0.022900763358778626,0.002548694610595703
1417,0.14111328125,-0.0404052734375,-1.1917724609375,-0.06870229007633588,-3.49618320610687,-0.07633587786259542,0.002517223358154297
1441,0.142333984375,-0.0391845703125,-1.1915283203125,0.0,-3.450381679389313,0.0916030534351145,0.0024924278259277344
1392,0.14111328125,-0.0472412109375,-1.1915283203125,-0.0916030534351145,-3.427480916030534,0.09923664122137404,0.002493619918823242
1347,0.14794921875,-0.0443115234375,-1.1842041015625,-0.09923664122137404,-3.6564885496183206,0.04580152671755725,0.002474069595336914
1309,0.138671875,-0.0401611328125,-1.1910400390625,0.007633587786259542,-3.282442748091603,0.007633587786259542,0.002499103546142578
1274,0.14453125,-0.0386962890625,-1.1883544921875,-0.015267175572519083,-3.480916030534351,-0.05343511450381679,0.002476930618286133
1235,0.140380859375,-0.0396728515625,-1.1949462890625,-0.09923664122137404,-3.381679389312977,0.1450381679389313,0.002792835235595703
1196,0.1513671875,-0.0389404296875,-1.1854248046875,-0.05343511450381679,-3.366412213740458,-0.04580152671755725,0.0023996829986572266
1389,0.144287109375,-0.0343017578125,-1.1939697265625,-0.11450381679389313,-3.404580152671756,0.03816793893129771,0.002381563186645508
1382,0.144775390625,-0.0401611328125,-1.1883544921875,-0.1450381679389313,-3.564885496183206,0.09923664122137404,0.002337217330932617
1338,0.143798828125,-0.0428466796875,-1.1859130859375,-0.061068702290076333,-3.427480916030534,0.06870229007633588,0.002408266067504883
1295,0.14306640625,-0.0379638671875,-1.1881103515625,-0.16030534351145037,-3.3893129770992365,0.06870229007633588,0.0024576187133789062
1262,0.147705078125,-0.0406494140625,-1.1903076171875,0.0,-3.4427480916030535,0.08396946564885496,0.0024890899658203125
1231,0.14306640625,-0.0433349609375,-1.1861572265625,-0.20610687022900764,-3.4122137404580153,-0.022900763358778626,0.0025963783264160156
1195,0.14306640625,-0.0496826171875,-1.1885986328125,-0.030534351145038167,-3.427480916030534,0.0,0.0025725364685058594
1161,0.142333984375,-0.0435791015625,-1.1851806640625,-0.16793893129770993,-3.450381679389313,0.17557251908396945,0.002348184585571289
1331,0.145751953125,-0.0450439453125,-1.1861572265625,-0.22900763358778625,-3.366412213740458,0.0,0.002344369888305664
1354,0.139404296875,-0.0445556640625,-1.1905517578125,-0.15267175572519084,-3.5267175572519083,0.061068702290076333,0.002540111541748047
1312,0.14404296875,-0.0401611328125,-1.1954345703125,-0.2748091603053435,-3.3969465648854964,-0.007633587786259542,0.002458810806274414
1274,0.14111328125,-0.0452880859375,-1.1944580078125,-0.022900763358778626,-3.519083969465649,0.08396946564885496,0.002320528030395508
1247,0.137939453125,-0.0391845703125,-1.1849365234375,-0.007633587786259542,-3.6793893129770994,0.1450381679389313,0.0023415088653564453
1217,0.142333984375,-0.0460205078125,-1.1868896484375,-0.030534351145038167,-3.33587786259542,0.07633587786259542,0.002318143844604492
1185,0.143798828125,-0.0426025390625,-1.1939697265625,0.04580152671755725,-3.6412213740458017,-0.015267175572519083,0.0023818016052246094
1147,0.14013671875,-0.0413818359375,-1.1915283203125,-0.007633587786259542,-3.50381679389313,0.10687022900763359,0.002490997314453125
1215,0.1435546875,-0.0433349609375,-1.1856689453125,-0.2366412213740458,-3.4122137404580153,-0.05343511450381679,0.00255584716796875
1302,0.144287109375,-0.0421142578125,-1.1922607421875,-0.15267175572519084,-3.4580152671755724,0.12213740458015267,0.0023887157440185547
1257,0.14404296875,-0.0445556640625,-1.1878662109375,0.03816793893129771,-3.351145038167939,0.04580152671755725,0.0028498172760009766
1217,0.146484375,-0.0460205078125,-1.1959228515625,0.0,-3.4427480916030535,0.15267175572519084,0.0026769638061523438
1189,0.1416015625,-0.0426025390625,-1.1893310546875,-0.29770992366412213,-3.4656488549618323,-0.04580152671755725,0.002424955368041992
1162,0.140625,-0.0404052734375,-1.1973876953125,-0.04580152671755725,-3.6946564885496183,0.030534351145038167,0.00244140625
1133,0.14013671875,-0.0445556640625,-1.1988525390625,-0.08396946564885496,-3.4885496183206106,0.007633587786259542,0.0023670196533203125
1100,0.142333984375,-0.0455322265625,-1.1971435546875,-0.183206106870229,-3.450381679389313,0.06870229007633588,0.0026171207427978516
1232,0.133056640625,-0.0386962890625,-1.1883544921875,-0.03816793893129771,-3.4580152671755724,0.0916030534351145,0.002438068389892578
1285,0.13818359375,-0.0389404296875,-1.1968994140625,-0.09923664122137404,-3.49618320610687,0.007633587786259542,0.002624988555908203
1248,0.135498046875,-0.0379638671875,-1.1888427734375,-0.08396946564885496,-3.4885496183206106,-0.015267175572519083,0.0024628639221191406
1214,0.14404296875,-0.0386962890625,-1.1951904296875,0.061068702290076333,-3.5801526717557253,-0.19083969465648856,0.0023238658905029297
1187,0.14453125,-0.0362548828125,-1.1900634765625,-0.10687022900763359,-3.3969465648854964,0.16030534351145037,0.002321004867553711
1161,0.1357421875,-0.0413818359375,-1.1895751953125,0.0,-3.4732824427480917,-0.022900763358778626,0.002318143844604492
1138,0.143798828125,-0.0428466796875,-1.1937255859375,-0.061068702290076333,-3.4427480916030535,0.08396946564885496,0.0023398399353027344
1106,0.143310546875,-0.0369873046875,-1.1885986328125,0.015267175572519083,-3.49618320610687,-0.11450381679389313,0.002317190170288086
1129,0.14111328125,-0.0372314453125,-1.1849365234375,-0.13740458015267176,-3.3893129770992365,0.007633587786259542,0.0023145675659179688
1259,0.1328125,-0.0408935546875,-1.1929931640625,-0.1450381679389313,-3.3969465648854964,-0.015267175572519083,0.0023162364959716797
1225,0.13134765625,-0.0389404296875,-1.1932373046875,-0.13740458015267176,-3.427480916030534,-0.0916030534351145,0.0023505687713623047
1193,0.142578125,-0.0379638671875,-1.1873779296875,0.0,-3.3206106870229006,-0.0916030534351145,0.002338886260986328
1164,0.14453125,-0.0355224609375,-1.1871337890625,-0.030534351145038167,-3.351145038167939,0.08396946564885496,0.002321481704711914
1141,0.141845703125,-0.0367431640625,-1.2066650390625,-0.022900763358778626,-3.519083969465649,-0.030534351145038167,0.002323150634765625
1121,0.14453125,-0.0364990234375,-1.1981201171875,-0.10687022900763359,-3.49618320610687,0.16793893129770993,0.002320528030395508
1093,0.141845703125,-0.0413818359375,-1.1842041015625,0.06870229007633588,-3.4427480916030535,0.015267175572519083,0.0023376941680908203
1063,0.134765625,-0.0418701171875,-1.1903076171875,0.0,-3.519083969465649,0.0,0.002336740493774414
1202,0.142333984375,-0.0379638671875,-1.2003173828125,0.04580152671755725,-3.3893129770992365,0.015267175572519083,0.002317667007446289
1245,0.143310546875,-0.0406494140625,-1.1929931640625,-0.06870229007633588,-3.404580152671756,0.0,0.002323627471923828
1211,0.142333984375,-0.0384521484375,-1.1900634765625,-0.12213740458015267,-3.4122137404580153,0.007633587786259542,0.0023195743560791016
1182,0.14453125,-0.0389404296875,-1.1883544921875,0.007633587786259542,-3.435114503816794,-0.05343511450381679,0.0023186206817626953
1161,0.1455078125,-0.0435791015625,-1.1922607421875,-0.061068702290076333,-3.450381679389313,0.09923664122137404,0.0023193359375
1141,0.138916015625,-0.0421142578125,-1.1949462890625,-0.12213740458015267,-3.4122137404580153,0.06870229007633588,0.0025031566619873047
1121,0.143310546875,-0.0430908203125,-1.1978759765625,-0.061068702290076333,-3.5267175572519083,0.007633587786259542,0.0023343563079833984
1091,0.141357421875,-0.0408935546875,-1.1910400390625,-0.07633587786259542,-3.3587786259541983,0.07633587786259542,0.0023419857025146484
1099,0.14013671875,-0.0430908203125,-1.1890869140625,0.022900763358778626,-3.5114503816793894,0.183206106870229,0.002321481704711914
1265,0.15087890625,-0.0382080078125,-1.1907958984375,0.007633587786259542,-3.404580152671756,0.16793893129770993,0.002318143844604492
1235,0.145751953125,-0.0394287109375,-1.1820068359375,-0.13740458015267176,-3.435114503816794,0.22137404580152673,0.002317667007446289
1202,0.137939453125,-0.0377197265625,-1.1866455078125,-0.12213740458015267,-3.435114503816794,-0.09923664122137404,0.0023190975189208984
1175,0.14111328125,-0.0404052734375,-1.1883544921875,-0.007633587786259542,-3.4427480916030535,0.022900763358778626,0.0023174285888671875
1157,0.150146484375,-0.0430908203125,-1.1949462890625,-0.0916030534351145,-3.404580152671756,0.007633587786259542,0.0023183822631835938
1133,0.143798828125,-0.0413818359375,-1.1927490234375,-0.24427480916030533,-3.404580152671756,-0.09923664122137404,0.002318859100341797
1110,0.1396484375,-0.0399169921875,-1.1903076171875,-0.07633587786259542,-3.480916030534351,-0.03816793893129771,0.002318143844604492
1082,0.142333984375,-0.0355224609375,-1.1947021484375,-0.16793893129770993,-3.5343511450381677,0.061068702290076333,0.0023179054260253906
1161,0.14306640625,-0.0438232421875,-1.1925048828125,-0.17557251908396945,-3.2977099236641223,-0.0916030534351145,0.002317667007446289
1224,0.135498046875,-0.0384521484375,-1.1859130859375,-0.09923664122137404,-3.404580152671756,-0.10687022900763359,0.0023212432861328125
1193,0.139404296875,-0.0426025390625,-1.1917724609375,-0.1450381679389313,-3.366412213740458,-0.022900763358778626,0.002317190170288086
1165,0.13818359375,-0.0423583984375,-1.1910400390625,-0.09923664122137404,-3.49618320610687,0.07633587786259542,0.0023179054260253906
1140,0.140380859375,-0.0408935546875,-1.1868896484375,-0.030534351145038167,-3.267175572519084,0.11450381679389313,0.002316713333129883
1119,0.140625,-0.0501708984375,-1.1903076171875,-0.16793893129770993,-3.4427480916030535,0.015267175572519083,0.002318859100341797
1100,0.144287109375,-0.0433349609375,-1.1907958984375,-0.2824427480916031,-3.450381679389313,0.09923664122137404,0.002317190170288086
1074,0.141845703125,-0.0411376953125,-1.1939697265625,-0.13740458015267176,-3.2442748091603053,0.08396946564885496,0.0023169517517089844
1047,0.145751953125,-0.0404052734375,-1.1903076171875,-0.183206106870229,-3.6412213740458017,-0.16030534351145037,0.002316713333129883
1174,0.143798828125,-0.0438232421875,-1.1988525390625,-0.10687022900763359,-3.427480916030534,0.1984732824427481,0.002339601516723633
1177,0.135986328125,-0.0406494140625,-1.1822509765625,-0.16793893129770993,-3.648854961832061,0.12213740458015267,0.0023398399353027344
1147,0.142333984375,-0.0421142578125,-1.1834716796875,-0.07633587786259542,-3.480916030534351,0.0,0.002350330352783203
1119,0.141357421875,-0.0394287109375,-1.1832275390625,-0.03816793893129771,-3.549618320610687,0.061068702290076333,0.002316713333129883
1102,0.140869140625,-0.0401611328125,-1.1810302734375,0.0,-3.5419847328244276,0.030534351145038167,0.0023179054260253906
1084,0.146484375,-0.0460205078125,-1.1910400390625,-0.13740458015267176,-3.435114503816794,0.20610687022900764,0.002316713333129883
1064,0.143310546875,-0.0435791015625,-1.1873779296875,-0.09923664122137404,-3.5877862595419847,-0.022900763358778626,0.0023183822631835938
1039,0.141845703125,-0.0423583984375,-1.1873779296875,-0.183206106870229,-3.5343511450381677,0.05343511450381679,0.0023190975189208984
1083,0.1484375,-0.0423583984375,-1.1878662109375,-0.21374045801526717,-3.4427480916030535,-0.19083969465648856,0.002327442169189453
1180,0.138427734375,-0.0435791015625,-1.1959228515625,0.022900763358778626,-3.282442748091603,0.12213740458015267,0.0023238658905029297
1151,0.14697265625,-0.0428466796875,-1.1939697265625,-0.07633587786259542,-3.351145038167939,-0.12213740458015267,0.0023136138916015625
1125,0.146240234375,-0.0450439453125,-1.1925048828125,-0.33587786259541985,-3.5877862595419847,0.061068702290076333,0.002432584762573242
1102,0.143798828125,-0.0413818359375,-1.1864013671875,-0.13740458015267176,-3.49618320610687,-0.05343511450381679,0.0024476051330566406
1087,0.142822265625,-0.0369873046875,-1.1890869140625,0.0,-3.33587786259542,0.0,0.002321958541870117
1067,0.14453125,-0.0457763671875,-1.1864013671875,-0.21374045801526717,-3.5801526717557253,0.10687022900763359,0.002357959747314453
1045,0.14013671875,-0.0386962890625,-1.1971435546875,0.007633587786259542,-3.50381679389313,0.12213740458015267,0.002330303192138672
1022,0.143310546875,-0.0377197265625,-1.1939697265625,-0.08396946564885496,-3.267175572519084,0.007633587786259542,0.0023190975189208984
1167,0.144287109375,-0.0428466796875,-1.1922607421875,-0.1450381679389313,-3.6106870229007635,0.061068702290076333,0.0023186206817626953
1179,0.14453125,-0.0460205078125,-1.1900634765625,-0.022900763358778626,-3.50381679389313,-0.11450381679389313,0.0023186206817626953
1155,0.139404296875,-0.0382080078125,-1.1888427734375,-0.061068702290076333,-3.6030534351145036,0.0,0.0023193359375
1131,0.142822265625,-0.0369873046875,-1.1895751953125,-0.16030534351145037,-3.3587786259541983,-0.11450381679389313,0.0023162364959716797
1117,0.146728515625,-0.0413818359375,-1.1885986328125,-0.16030534351145037,-3.427480916030534,0.11450381679389313,0.0023193359375
1102,0.141357421875,-0.0421142578125,-1.1905517578125,-0.10687022900763359,-3.564885496183206,-0.12213740458015267,0.002317667007446289
1089,0.139892578125,-0.0384521484375,-1.1842041015625,-0.007633587786259542,-3.404580152671756,0.007633587786259542,0.0023453235626220703
1065,0.140380859375,-0.0416259765625,-1.1893310546875,-0.183206106870229,-3.5343511450381677,0.07633587786259542,0.002319812774658203
1083,0.14404296875,-0.0367431640625,-1.1888427734375,-0.0916030534351145,-3.3587786259541983,0.007633587786259542,0.0023179054260253906
1202,0.144287109375,-0.0352783203125,-1.1998291015625,-0.04580152671755725,-3.4122137404580153,0.061068702290076333,0.0023190975189208984
1175,0.14013671875,-0.0360107421875,-1.1903076171875,-0.0916030534351145,-3.6106870229007635,0.17557251908396945,0.002317667007446289
1150,0.1416015625,-0.0447998046875,-1.1878662109375,-0.030534351145038167,-3.480916030534351,0.007633587786259542,0.0023186206817626953
1127,0.140380859375,-0.0396728515625,-1.1873779296875,-0.022900763358778626,-3.6106870229007635,-0.09923664122137404,0.0023179054260253906
1116,0.14453125,-0.0382080078125,-1.1988525390625,0.03816793893129771,-3.3969465648854964,0.015267175572519083,0.002318859100341797
1099,0.1416015625,-0.0384521484375,-1.1895751953125,-0.15267175572519084,-3.3893129770992365,-0.007633587786259542,0.0023190975189208984
1080,0.13916015625,-0.0411376953125,-1.1876220703125,-0.16030534351145037,-3.3282442748091605,-0.015267175572519083,0.0023190975189208984
1058,0.148681640625,-0.0450439453125,-1.1932373046875,-0.03816793893129771,-3.5267175572519083,0.22900763358778625,0.0023190975189208984
1146,0.142822265625,-0.0421142578125,-1.1949462890625,0.0916030534351145,-3.4885496183206106,0.061068702290076333,0.0023183822631835938
1187,0.142822265625,-0.0369873046875,-1.1912841796875,-0.1984732824427481,-3.4580152671755724,-0.06870229007633588,0.002323150634765625
1162,0.14599609375,-0.0386962890625,-1.1878662109375,-0.08396946564885496,-3.2900763358778624,0.08396946564885496,0.0023386478424072266
1137,0.14501953125,-0.0426025390625,-1.1927490234375,-0.030534351145038167,-3.3282442748091605,0.04580152671755725,0.0023200511932373047
1119,0.141845703125,-0.0396728515625,-1.1915283203125,0.0,-3.404580152671756,0.09923664122137404,0.0023193359375
1104,0.14501953125,-0.0404052734375,-1.1932373046875,-0.06870229007633588,-3.4732824427480917,0.16030534351145037,0.0023145675659179688
1089,0.142333984375,-0.0423583984375,-1.1942138671875,-0.07633587786259542,-3.4427480916030535,-0.05343511450381679,0.0024847984313964844
1068,0.14208984375,-0.0411376953125,-1.1810302734375,0.0,-3.5343511450381677,0.022900763358778626,0.0023305416107177734
1059,0.138427734375,-0.0430908203125,-1.1854248046875,-0.24427480916030533,-3.6259541984732824,-0.022900763358778626,0.0023331642150878906
1170,0.140869140625,-0.0430908203125,-1.1939697265625,-0.12213740458015267,-3.5114503816793894,0.06870229007633588,0.0023229122161865234
1156,0.1484375,-0.0418701171875,-1.1844482421875,0.06870229007633588,-3.3587786259541983,-0.015267175572519083,0.002318859100341797
1128,0.147216796875,-0.0389404296875,-1.1910400390625,-0.15267175572519084,-3.5801526717557253,0.09923664122137404,0.002318859100341797
1107,0.149169921875,-0.0438232421875,-1.1895751953125,-0.09923664122137404,-3.2748091603053435,0.03816793893129771,0.0023183822631835938
1095,0.150146484375,-0.0447998046875,-1.1917724609375,-0.03816793893129771,-3.4122137404580153,0.022900763358778626,0.0023183822631835938
1081,0.14404296875,-0.0435791015625,-1.1849365234375,0.007633587786259542,-3.564885496183206,0.022900763358778626,0.0023186206817626953
1060,0.14404296875,-0.0404052734375,-1.1873779296875,-0.11450381679389313,-3.4732824427480917,-0.0916030534351145,0.0023169517517089844
1038,0.1455078125,-0.0418701171875,-1.1920166015625,-0.015267175572519083,-3.450381679389313,-0.09923664122137404,0.0023183822631835938
1077,0.13720703125,-0.0430908203125,-1.1949462890625,-0.16030534351145037,-3.4656488549618323,0.08396946564885496,0.002318143844604492
1156,0.137451171875,-0.0452880859375,-1.1805419921875,0.007633587786259542,-3.786259541984733,0.030534351145038167,0.002317667007446289
1131,0.1376953125,-0.0462646484375,-1.1883544921875,-0.17557251908396945,-3.5419847328244276,-0.022900763358778626,0.002318143844604492
1109,0.13916015625,-0.0345458984375,-1.1910400390625,-0.16030534351145037,-3.4656488549618323,0.12213740458015267,0.002318859100341797
1090,0.134521484375,-0.0423583984375,-1.1907958984375,-0.11450381679389313,-3.6106870229007635,0.030534351145038167,0.0023348331451416016
1076,0.150146484375,-0.0438232421875,-1.1868896484375,-0.030534351145038167,-3.450381679389313,-0.08396946564885496,0.0023581981658935547
1064,0.140869140625,-0.0484619140625,-1.1968994140625,-0.17557251908396945,-3.4885496183206106,0.0,0.0023245811462402344
1045,0.141357421875,-0.0372314453125,-1.1922607421875,-0.015267175572519083,-3.4198473282442747,0.007633587786259542,0.002317667007446289
1024,0.14306640625,-0.0391845703125,-1.1922607421875,-0.16030534351145037,-3.5343511450381677,0.13740458015267176,0.002330303192138672
1161,0.1435546875,-0.0406494140625,-1.1915283203125,-0.05343511450381679,-3.6564885496183206,0.03816793893129771,0.002344846725463867
1169,0.141845703125,-0.0430908203125,-1.1944580078125,-0.09923664122137404,-3.3969465648854964,0.0,0.0023202896118164062
1145,0.136962890625,-0.0382080078125,-1.1868896484375,-0.19083969465648856,-3.5801526717557253,-0.04580152671755725,0.002321481704711914
1123,0.1396484375,-0.0404052734375,-1.1927490234375,-0.1450381679389313,-3.404580152671756,0.04580152671755725,0.002318859100341797
1109,0.14306640625,-0.0394287109375,-1.1898193359375,-0.20610687022900764,-3.595419847328244,0.0,0.0023195743560791016
1093,0.136962890625,-0.0347900390625,-1.1937255859375,-0.20610687022900764,-3.49618320610687,-0.05343511450381679,0.0023162364959716797
1081,0.145751953125,-0.0350341796875,-1.1949462890625,-0.10687022900763359,-3.312977099236641,0.15267175572519084,0.0023183822631835938
1058,0.140869140625,-0.0413818359375,-1.1898193359375,-0.12213740458015267,-3.7709923664122136,0.07633587786259542,0.0023190975189208984
1087,0.144287109375,-0.0433349609375,-1.1934814453125,-0.030534351145038167,-3.351145038167939,0.11450381679389313,0.0023183822631835938
1175,0.138916015625,-0.0406494140625,-1.1854248046875,-0.2366412213740458,-3.2900763358778624,0.007633587786259542,0.002317190170288086
1151,0.14404296875,-0.0396728515625,-1.1905517578125,-0.183206106870229,-3.4427480916030535,-0.19083969465648856,0.002317190170288086
1129,0.13916015625,-0.0386962890625,-1.1922607421875,-0.13740458015267176,-3.5572519083969465,0.24427480916030533,0.0023179054260253906
1109,0.144775390625,-0.0418701171875,-1.1861572265625,-0.061068702290076333,-3.549618320610687,-0.061068702290076333,0.0023179054260253906
1098,0.143798828125,-0.0386962890625,-1.1881103515625,0.0,-3.4427480916030535,0.007633587786259542,0.002318143844604492
1088,0.144775390625,-0.0382080078125,-1.1829833984375,-0.13740458015267176,-3.3282442748091605,0.08396946564885496,0.0023162364959716797
1069,0.1494140625,-0.0369873046875,-1.1881103515625,-0.06870229007633588,-3.66412213740458,0.03816793893129771,0.002319812774658203
1047,0.142578125,-0.0386962890625,-1.1876220703125,-0.1297709923664122,-3.564885496183206,-0.015267175572519083,0.0023179054260253906
1110,0.140380859375,-0.0386962890625,-1.1995849609375,0.0,-3.381679389312977,-0.030534351145038167,0.002318143844604492
1148,0.14306640625,-0.0379638671875,-1.1871337890625,-0.15267175572519084,-3.5343511450381677,0.0,0.002316713333129883
1126,0.141845703125,-0.0447998046875,-1.1949462890625,-0.05343511450381679,-3.3282442748091605,0.1984732824427481,0.002319812774658203
1102,0.135009765625,-0.0455322265625,-1.1917724609375,-0.13740458015267176,-3.450381679389313,-0.04580152671755725,0.002700328826904297
1091,0.146240234375,-0.0426025390625,-1.1824951171875,-0.1984732824427481,-3.282442748091603,-0.03816793893129771,0.0025777816772460938
1079,0.14794921875,-0.0406494140625,-1.1956787109375,-0.04580152671755725,-3.2595419847328246,0.061068702290076333,0.0024712085723876953
1065,0.143310546875,-0.0457763671875,-1.1961669921875,-0.06870229007633588,-3.435114503816794,-0.015267175572519083,0.002341747283935547
1044,0.1435546875,-0.0396728515625,-1.1903076171875,-0.20610687022900764,-3.427480916030534,0.007633587786259542,0.002318859100341797
1093,0.142578125,-0.0462646484375,-1.1861572265625,-0.1297709923664122,-3.404580152671756,0.11450381679389313,0.0023186206817626953
1183,0.143310546875,-0.0394287109375,-1.2017822265625,-0.007633587786259542,-3.33587786259542,-0.015267175572519083,0.002319812774658203
1161,0.144775390625,-0.0411376953125,-1.1883544921875,-0.0916030534351145,-3.145038167938931,0.0,0.0023190975189208984
1139,0.1416015625,-0.0469970703125,-1.1917724609375,-0.15267175572519084,-3.3969465648854964,-0.04580152671755725,0.002318859100341797
1123,0.141845703125,-0.0406494140625,-1.1839599609375,-0.08396946564885496,-3.5267175572519083,-0.12213740458015267,0.0023202896118164062
1112,0.138671875,-0.0416259765625,-1.1864013671875,-0.07633587786259542,-3.2061068702290076,0.19083969465648856,0.0023179054260253906
1099,0.141357421875,-0.0406494140625,-1.1864013671875,-0.0916030534351145,-3.3969465648854964,0.08396946564885496,0.002318859100341797
1078,0.142578125,-0.0484619140625,-1.1893310546875,-0.20610687022900764,-3.5572519083969465,0.04580152671755725,0.0023174285888671875
1055,0.141845703125,-0.0474853515625,-1.1893310546875,-0.05343511450381679,-3.2900763358778624,0.04580152671755725,0.002317667007446289
1148,0.140869140625,-0.0369873046875,-1.1866455078125,0.03816793893129771,-3.435114503816794,0.12213740458015267,0.0023179054260253906
1162,0.140625,-0.0484619140625,-1.1956787109375,-0.1297709923664122,-3.618320610687023,-0.007633587786259542,0.002317667007446289
1139,0.13818359375,-0.0438232421875,-1.1861572265625,-0.12213740458015267,-3.49618320610687,0.11450381679389313,0.002318143844604492
1115,0.1416015625,-0.0396728515625,-1.1920166015625,-0.183206106870229,-3.450381679389313,-0.015267175572519083,0.0023179054260253906
1106,0.143310546875,-0.0452880859375,-1.1934814453125,-0.007633587786259542,-3.564885496183206,0.03816793893129771,0.0023179054260253906
1094,0.141845703125,-0.0377197265625,-1.1844482421875,-0.07633587786259542,-3.618320610687023,0.11450381679389313,0.0023179054260253906
1079,0.13818359375,-0.0440673828125,-1.1888427734375,-0.07633587786259542,-3.4656488549618323,-0.061068702290076333,0.002332925796508789
1058,0.140380859375,-0.0418701171875,-1.1888427734375,-0.08396946564885496,-3.648854961832061,0.15267175572519084,0.002485990524291992
1079,0.138671875,-0.0416259765625,-1.1910400390625,-0.19083969465648856,-3.4427480916030535,-0.11450381679389313,0.002332448959350586
1153,0.146484375,-0.0438232421875,-1.1966552734375,-0.08396946564885496,-3.404580152671756,-0.09923664122137404,0.0023217201232910156
1131,0.14697265625,-0.0377197265625,-1.1927490234375,-0.20610687022900764,-3.549618320610687,0.09923664122137404,0.002318859100341797
1107,0.14208984375,-0.0452880859375,-1.1949462890625,-0.007633587786259542,-3.6564885496183206,0.0916030534351145,0.0023186206817626953
1088,0.145751953125,-0.0445556640625,-1.2000732421875,-0.04580152671755725,-3.4656488549618323,0.0,0.0023186206817626953
1077,0.140380859375,-0.0406494140625,-1.1905517578125,-0.08396946564885496,-3.50381679389313,-0.03816793893129771,0.0023169517517089844
1067,0.14599609375,-0.0472412109375,-1.1915283203125,-0.07633587786259542,-3.6793893129770994,-0.1297709923664122,0.0023186206817626953
1053,0.1435546875,-0.0438232421875,-1.1947021484375,-0.2366412213740458,-3.5572519083969465,0.15267175572519084,0.002317190170288086
1031,0.13916015625,-0.0367431640625,-1.1851806640625,-0.12213740458015267,-3.480916030534351,-0.030534351145038167,0.0023458003997802734
1096,0.14013671875,-0.0411376953125,-1.1876220703125,-0.1297709923664122,-3.4580152671755724,0.1450381679389313,0.0023682117462158203
1133,0.138671875,-0.0369873046875,-1.1920166015625,-0.061068702290076333,-3.4732824427480917,0.007633587786259542,0.0023221969604492188
1111,0.150146484375,-0.0394287109375,-1.1922607421875,-0.13740458015267176,-3.50381679389313,-0.09923664122137404,0.002320528030395508
1089,0.13818359375,-0.0391845703125,-1.1939697265625,-0.05343511450381679,-3.3740458015267176,0.061068702290076333,0.0023190975189208984
1076,0.146728515625,-0.0465087890625,-1.1939697265625,0.13740458015267176,-3.549618320610687,-0.06870229007633588,0.0023190975189208984
1063,0.144775390625,-0.0408935546875,-1.1893310546875,-0.19083969465648856,-3.427480916030534,0.13740458015267176,0.002317667007446289
1052,0.13525390625,-0.0406494140625,-1.1959228515625,-0.16030534351145037,-3.618320610687023,-0.2366412213740458,0.0023179054260253906
1032,0.142578125,-0.0391845703125,-1.1883544921875,-0.030534351145038167,-3.450381679389313,-0.007633587786259542,0.002318859100341797
1015,0.1474609375,-0.0418701171875,-1.1861572265625,-0.030534351145038167,-3.50381679389313,0.21374045801526717,0.0023190975189208984
1155,0.136962890625,-0.0382080078125,-1.1920166015625,-0.22900763358778625,-3.5114503816793894,0.030534351145038167,0.0023190975189208984
1144,0.137939453125,-0.0396728515625,-1.1890869140625,0.022900763358778626,-3.3740458015267176,0.06870229007633588,0.002318143844604492
1118,0.140869140625,-0.0426025390625,-1.1944580078125,-0.3053435114503817,-3.549618320610687,-0.03816793893129771,0.0023183822631835938
1099,0.14013671875,-0.0401611328125,-1.1981201171875,-0.1984732824427481,-3.3587786259541983,0.03816793893129771,0.0023183822631835938
1086,0.142822265625,-0.0394287109375,-1.1978759765625,-0.03816793893129771,-3.2977099236641223,0.061068702290076333,0.0023186206817626953
1073,0.137939453125,-0.0352783203125,-1.1895751953125,-0.12213740458015267,-3.5572519083969465,-0.10687022900763359,0.002318859100341797
1061,0.134765625,-0.0411376953125,-1.1876220703125,-0.21374045801526717,-3.312977099236641,0.07633587786259542,0.002318859100341797
1039,0.14208984375,-0.0416259765625,-1.2012939453125,-0.11450381679389313,-3.4198473282442747,0.0,0.0023229122161865234
1055,0.142822265625,-0.0369873046875,-1.1910400390625,-0.022900763358778626,-3.3587786259541983,0.08396946564885496,0.0023174285888671875
1136,0.1337890625,-0.0450439453125,-1.1910400390625,-0.10687022900763359,-3.6106870229007635,0.03816793893129771,0.002318143844604492
1113,0.137939453125,-0.0428466796875,-1.1844482421875,-0.015267175572519083,-3.572519083969466,0.03816793893129771,0.0023174285888671875
1089,0.1416015625,-0.0386962890625,-1.1898193359375,0.03816793893129771,-3.3969465648854964,0.0916030534351145,0.002320528030395508
1070,0.145263671875,-0.0450439453125,-1.1898193359375,-0.03816793893129771,-3.49618320610687,-0.13740458015267176,0.0023179054260253906
1061,0.143310546875,-0.0340576171875,-1.1973876953125,0.03816793893129771,-3.3893129770992365,-0.12213740458015267,0.0023183822631835938
1048,0.137451171875,-0.0411376953125,-1.1949462890625,-0.022900763358778626,-3.435114503816794,0.22900763358778625,0.0023186206817626953
1029,0.138671875,-0.0440673828125,-1.1932373046875,-0.08396946564885496,-3.5877862595419847,-0.20610687022900764,0.0023183822631835938
1011,0.143798828125,-0.0333251953125,-1.1956787109375,-0.0916030534351145,-3.6030534351145036,0.10687022900763359,0.0023179054260253906
1129,0.139404296875,-0.0469970703125,-1.1856689453125,-0.022900763358778626,-3.4122137404580153,-0.05343511450381679,0.0023183822631835938
1145,0.142333984375,-0.0472412109375,-1.1917724609375,0.0,-3.366412213740458,0.06870229007633588,0.002318143844604492
1123,0.138671875,-0.0418701171875,-1.1883544921875,-0.0916030534351145,-3.4580152671755724,-0.030534351145038167,0.002316713333129883
1102,0.141357421875,-0.0379638671875,-1.1866455078125,-0.15267175572519084,-3.4427480916030535,0.03816793893129771,0.002317190170288086
1087,0.136962890625,-0.0421142578125,-1.1900634765625,-0.11450381679389313,-3.4427480916030535,0.19083969465648856,0.0023179054260253906
1077,0.142578125,-0.0484619140625,-1.1932373046875,-0.05343511450381679,-3.480916030534351,0.03816793893129771,0.0023195743560791016
1064,0.138427734375,-0.0411376953125,-1.1903076171875,-0.1297709923664122,-3.3893129770992365,0.09923664122137404,0.0023174285888671875
1043,0.13720703125,-0.0433349609375,-1.1995849609375,0.05343511450381679,-3.648854961832061,0.09923664122137404,0.0023202896118164062
1069,0.135498046875,-0.0433349609375,-1.1876220703125,0.0,-3.435114503816794,-0.17557251908396945,0.002329587936401367
1169,0.1396484375,-0.0418701171875,-1.1903076171875,-0.10687022900763359,-3.351145038167939,0.21374045801526717,0.002319812774658203
1146,0.1416015625,-0.0430908203125,-1.1881103515625,-0.13740458015267176,-3.4656488549618323,0.04580152671755725,0.0023169517517089844
1122,0.138671875,-0.0457763671875,-1.1888427734375,0.015267175572519083,-3.549618320610687,-0.07633587786259542,0.0023186206817626953
1101,0.1474609375,-0.0450439453125,-1.1947021484375,0.08396946564885496,-3.549618320610687,0.0916030534351145,0.002317667007446289
1089,0.148193359375,-0.0418701171875,-1.1956787109375,-0.007633587786259542,-3.6030534351145036,0.030534351145038167,0.0023169517517089844
1076,0.1416015625,-0.0391845703125,-1.1893310546875,0.03816793893129771,-3.3969465648854964,-0.015267175572519083,0.0023193359375
1058,0.142333984375,-0.0391845703125,-1.1785888671875,0.0,-3.427480916030534,0.04580152671755725,0.0023164749145507812
1038,0.1435546875,-0.0386962890625,-1.1956787109375,-0.1450381679389313,-3.33587786259542,0.08396946564885496,0.0023164749145507812
1111,0.142822265625,-0.0460205078125,-1.1937255859375,-0.07633587786259542,-3.4198473282442747,0.015267175572519083,0.002318143844604492
1155,0.136474609375,-0.0404052734375,-1.1885986328125,0.015267175572519083,-3.381679389312977,-0.030534351145038167,0.002317667007446289
1132,0.13818359375,-0.0418701171875,-1.1905517578125,-0.04580152671755725,-3.351145038167939,0.0,0.002319812774658203
1109,0.139892578125,-0.0399169921875,-1.1864013671875,0.007633587786259542,-3.7786259541984735,0.05343511450381679,0.0023157596588134766
1094,0.140869140625,-0.0447998046875,-1.1947021484375,-0.03816793893129771,-3.50381679389313,0.05343511450381679,0.002318859100341797
1080,0.1455078125,-0.0396728515625,-1.1912841796875,-0.07633587786259542,-3.33587786259542,0.07633587786259542,0.002316713333129883
1068,0.141357421875,-0.0450439453125,-1.1827392578125,0.007633587786259542,-3.4656488549618323,0.10687022900763359,0.0023183822631835938
1044,0.140869140625,-0.0384521484375,-1.1920166015625,-0.07633587786259542,-3.4656488549618323,-0.06870229007633588,0.0023179054260253906
1025,0.142333984375,-0.0391845703125,-1.1854248046875,0.007633587786259542,-3.49618320610687,-0.0916030534351145,0.002460479736328125
1165,0.13818359375,-0.0406494140625,-1.1893310546875,-0.09923664122137404,-3.3969465648854964,0.0916030534351145,0.002343416213989258
1153,0.145751953125,-0.0404052734375,-1.1951904296875,-0.09923664122137404,-3.5114503816793894,0.16793893129770993,0.0023179054260253906
1129,0.140869140625,-0.0350341796875,-1.1988525390625,-0.10687022900763359,-3.4580152671755724,-0.03816793893129771,0.0023190975189208984
1109,0.14208984375,-0.0465087890625,-1.1929931640625,-0.05343511450381679,-3.7022900763358777,0.03816793893129771,0.0023186206817626953
1096,0.1396484375,-0.0384521484375,-1.1922607421875,-0.061068702290076333,-3.312977099236641,-0.09923664122137404,0.002318143844604492
1087,0.141845703125,-0.0396728515625,-1.1849365234375,0.022900763358778626,-3.4885496183206106,-0.03816793893129771,0.0023190975189208984
1072,0.1376953125,-0.0435791015625,-1.1888427734375,-0.08396946564885496,-3.2748091603053435,0.31297709923664124,0.002317190170288086
1050,0.13916015625,-0.0460205078125,-1.1898193359375,-0.03816793893129771,-3.4198473282442747,-0.13740458015267176,0.002318143844604492
1065,0.14453125,-0.0357666015625,-1.1907958984375,0.007633587786259542,-3.5419847328244276,-0.022900763358778626,0.002317667007446289
1142,0.138671875,-0.0374755859375,-1.2034912109375,-0.030534351145038167,-3.6106870229007635,-0.05343511450381679,0.002317190170288086
1122,0.14111328125,-0.0443115234375,-1.1922607421875,-0.04580152671755725,-3.4885496183206106,-0.08396946564885496,0.002317667007446289
1099,0.135986328125,-0.0411376953125,-1.1983642578125,-0.0916030534351145,-3.5114503816793894,0.15267175572519084,0.0023195743560791016
1084,0.13916015625,-0.0457763671875,-1.1910400390625,0.0,-3.450381679389313,-0.015267175572519083,0.0023193359375
1075,0.14794921875,-0.0452880859375,-1.2003173828125,-0.1297709923664122,-3.5572519083969465,0.12213740458015267,0.0023157596588134766
1062,0.1376953125,-0.0413818359375,-1.1966552734375,0.030534351145038167,-3.427480916030534,0.16030534351145037,0.0023179054260253906
1041,0.1435546875,-0.0416259765625,-1.1883544921875,-0.06870229007633588,-3.5267175572519083,0.007633587786259542,0.002317190170288086
1019,0.14404296875,-0.0428466796875,-1.1920166015625,-0.09923664122137404,-3.404580152671756,0.0,0.002318143844604492
1112,0.14501953125,-0.0416259765625,-1.1905517578125,-0.007633587786259542,-3.366412213740458,0.015267175572519083,0.0023157596588134766
1135,0.13720703125,-0.0426025390625,-1.1895751953125,-0.16030534351145037,-3.404580152671756,-0.03816793893129771,0.0023183822631835938
1113,0.13525390625,-0.0416259765625,-1.1912841796875,0.0,-3.6946564885496183,0.022900763358778626,0.0023193359375
1091,0.1396484375,-0.0382080078125,-1.1890869140625,-0.06870229007633588,-3.3740458015267176,-0.10687022900763359,0.0023157596588134766
1080,0.1416015625,-0.0418701171875,-1.1915283203125,-0.16030534351145037,-3.4122137404580153,-0.007633587786259542,0.002318859100341797
1070,0.144287109375,-0.0357666015625,-1.1956787109375,-0.13740458015267176,-3.4580152671755724,-0.022900763358778626,0.002318143844604492
1060,0.14111328125,-0.0447998046875,-1.1925048828125,-0.12213740458015267,-3.50381679389313,-0.08396946564885496,0.0023233890533447266
1040,0.14208984375,-0.0428466796875,-1.1864013671875,-0.05343511450381679,-3.648854961832061,-0.06870229007633588,0.002319812774658203
1034,0.1435546875,-0.0386962890625,-1.1798095703125,-0.15267175572519084,-3.618320610687023,0.08396946564885496,0.0023179054260253906
1157,0.1396484375,-0.0338134765625,-1.1856689453125,-0.06870229007633588,-3.549618320610687,-0.022900763358778626,0.0023183822631835938
1135,0.14208984375,-0.0391845703125,-1.1920166015625,-0.04580152671755725,-3.5419847328244276,0.007633587786259542,0.002320528030395508
1116,0.141845703125,-0.0384521484375,-1.1959228515625,-0.13740458015267176,-3.519083969465649,0.0,0.0023179054260253906
1096,0.14111328125,-0.0372314453125,-1.1878662109375,-0.07633587786259542,-3.381679389312977,-0.1297709923664122,0.0023164749145507812
1085,0.14453125,-0.0418701171875,-1.1937255859375,-0.21374045801526717,-3.5419847328244276,-0.08396946564885496,0.0023183822631835938
1073,0.140380859375,-0.0372314453125,-1.1912841796875,-0.15267175572519084,-3.50381679389313,0.061068702290076333,0.0023186206817626953
1057,0.146728515625,-0.0352783203125,-1.1854248046875,-0.20610687022900764,-3.50381679389313,0.16793893129770993,0.0023179054260253906
1035,0.14501953125,-0.0394287109375,-1.1871337890625,-0.06870229007633588,-3.427480916030534,0.007633587786259542,0.0023186206817626953
1075,0.144775390625,-0.0406494140625,-1.1973876953125,-0.03816793893129771,-3.4122137404580153,0.03816793893129771,0.0023186206817626953
1128,0.138427734375,-0.0416259765625,-1.1910400390625,-0.1450381679389313,-3.4885496183206106,-0.0916030534351145,0.0023179054260253906
1106,0.140380859375,-0.0499267578125,-1.1925048828125,0.0,-3.633587786259542,0.05343511450381679,0.0023488998413085938
1081,0.135009765625,-0.0413818359375,-1.1876220703125,-0.007633587786259542,-3.3893129770992365,-0.12213740458015267,0.0023179054260253906
1070,0.141845703125,-0.0477294921875,-1.1800537109375,-0.12213740458015267,-3.5572519083969465,0.022900763358778626,0.0023200511932373047
1057,0.14111328125,-0.0457763671875,-1.1859130859375,-0.05343511450381679,-3.4885496183206106,-0.007633587786259542,0.0023195743560791016
1047,0.142333984375,-0.0450439453125,-1.1846923828125,-0.08396946564885496,-3.3206106870229006,0.2595419847328244,0.0023193359375
1028,0.148681640625,-0.0462646484375,-1.1968994140625,-0.07633587786259542,-3.312977099236641,-0.08396946564885496,0.0023186206817626953
1007,0.14208984375,-0.0391845703125,-1.1844482421875,-0.1984732824427481,-3.50381679389313,-0.022900763358778626,0.0023193359375
1122,0.140380859375,-0.0379638671875,-1.1927490234375,-0.1450381679389313,-3.435114503816794,0.10687022900763359,0.002320528030395508
1121,0.143798828125,-0.0426025390625,-1.1893310546875,-0.061068702290076333,-3.450381679389313,0.13740458015267176,0.0023179054260253906
1097,0.144287109375,-0.0408935546875,-1.1895751953125,-0.21374045801526717,-3.6030534351145036,0.061068702290076333,0.002318143844604492
1075,0.13916015625,-0.0416259765625,-1.1986083984375,-0.13740458015267176,-3.404580152671756,0.16030534351145037,0.002318143844604492
1065,0.141845703125,-0.0433349609375,-1.1944580078125,-0.007633587786259542,-3.381679389312977,-0.06870229007633588,0.002317667007446289
1057,0.146484375,-0.0413818359375,-1.1837158203125,-0.16030534351145037,-3.4885496183206106,0.13740458015267176,0.0023183822631835938
1043,0.140625,-0.0391845703125,-1.1859130859375,-0.11450381679389313,-3.5419847328244276,-0.1297709923664122,0.0023183822631835938
1023,0.139404296875,-0.0369873046875,-1.1956787109375,-0.22137404580152673,-3.519083969465649,-0.030534351145038167,0.002318143844604492
1050,0.1357421875,-0.0467529296875,-1.1973876953125,-0.13740458015267176,-3.4122137404580153,0.015267175572519083,0.0023174285888671875
1150,0.1435546875,-0.0418701171875,-1.1925048828125,-0.10687022900763359,-3.4198473282442747,0.08396946564885496,0.0023193359375
1127,0.140380859375,-0.0423583984375,-1.1868896484375,-0.2748091603053435,-3.5267175572519083,0.030534351145038167,0.002317667007446289
1103,0.140625,-0.0401611328125,-1.1907958984375,-0.17557251908396945,-3.633587786259542,-0.1450381679389313,0.0023179054260253906
1088,0.143310546875,-0.0406494140625,-1.1878662109375,-0.1450381679389313,-3.50381679389313,-0.05343511450381679,0.002318143844604492
1080,0.1435546875,-0.0418701171875,-1.1876220703125,-0.05343511450381679,-3.351145038167939,0.1297709923664122,0.002316713333129883
1066,0.143798828125,-0.0396728515625,-1.1871337890625,-0.26717557251908397,-3.4580152671755724,-0.09923664122137404,0.0023179054260253906
1047,0.14453125,-0.0386962890625,-1.1900634765625,-0.183206106870229,-3.564885496183206,0.06870229007633588,0.002637147903442383
1026,0.135498046875,-0.0406494140625,-1.1937255859375,-0.22900763358778625,-3.404580152671756,0.1297709923664122,0.0023250579833984375
1147,0.149658203125,-0.0447998046875,-1.1937255859375,-0.183206106870229,-3.6030534351145036,-0.030534351145038167,0.0024569034576416016
1139,0.1376953125,-0.0401611328125,-1.1959228515625,-0.22900763358778625,-3.687022900763359,-0.05343511450381679,0.002329111099243164
1117,0.142333984375,-0.0421142578125,-1.1873779296875,-0.3435114503816794,-3.4427480916030535,-0.05343511450381679,0.002340555191040039
1097,0.140380859375,-0.0413818359375,-1.1905517578125,-0.2824427480916031,-3.3969465648854964,0.022900763358778626,0.0023193359375
1083,0.142578125,-0.0408935546875,-1.1964111328125,-0.2595419847328244,-3.564885496183206,-0.1450381679389313,0.002318143844604492
1071,0.1396484375,-0.0360107421875,-1.1900634765625,-0.2748091603053435,-3.4656488549618323,0.03816793893129771,0.0023183822631835938
1057,0.14599609375,-0.0423583984375,-1.1932373046875,-0.29770992366412213,-3.5572519083969465,-0.007633587786259542,0.002319812774658203
1036,0.14013671875,-0.0423583984375,-1.1839599609375,-0.2366412213740458,-3.3206106870229006,0.0,0.0023276805877685547
1077,0.13916015625,-0.0406494140625,-1.1988525390625,-0.37404580152671757,-3.572519083969466,0.022900763358778626,0.0023183822631835938
1168,0.1357421875,-0.0357666015625,-1.1942138671875,-0.31297709923664124,-3.7099236641221376,0.04580152671755725,0.0023200511932373047
1142,0.14111328125,-0.0421142578125,-1.1951904296875,-0.32061068702290074,-3.5267175572519083,-0.12213740458015267,0.0023186206817626953
1120,0.143310546875,-0.0443115234375,-1.1917724609375,-0.2366412213740458,-3.4122137404580153,0.0,0.0023183822631835938
1104,0.14306640625,-0.0404052734375,-1.1893310546875,-0.3282442748091603,-3.5572519083969465,0.19083969465648856,0.002317190170288086
1090,0.14306640625,-0.0416259765625,-1.1968994140625,0.030534351145038167,-3.7251908396946565,-0.11450381679389313,0.002317190170288086
1075,0.137451171875,-0.0435791015625,-1.1954345703125,-0.3816793893129771,-3.198473282442748,0.022900763358778626,0.0023186206817626953
1057,0.143798828125,-0.0433349609375,-1.1949462890625,-0.16793893129770993,-3.7251908396946565,-0.04580152671755725,0.002317190170288086
1037,0.144287109375,-0.0443115234375,-1.1864013671875,-0.1450381679389313,-3.50381679389313,-0.061068702290076333,0.002318859100341797
1109,0.136962890625,-0.0355224609375,-1.1907958984375,-0.5877862595419847,-3.5877862595419847,0.007633587786259542,0.0023186206817626953
1137,0.13427734375,-0.0408935546875,-1.1815185546875,-0.44274809160305345,-3.6946564885496183,-0.04580152671755725,0.002317667007446289
1113,0.146484375,-0.0347900390625,-1.1927490234375,-0.4198473282442748,-3.6030534351145036,0.015267175572519083,0.002318859100341797
1088,0.141357421875,-0.0433349609375,-1.1939697265625,-0.22900763358778625,-3.4122137404580153,0.061068702290076333,0.002317190170288086
1075,0.14501953125,-0.0435791015625,-1.2003173828125,-0.31297709923664124,-3.519083969465649,-0.19083969465648856,0.002318143844604492
1063,0.149169921875,-0.0408935546875,-1.1939697265625,-0.5190839694656488,-3.732824427480916,-0.04580152671755725,0.002318143844604492
1053,0.13525390625,-0.0406494140625,-1.1820068359375,-0.46564885496183206,-3.549618320610687,0.03816793893129771,0.0023183822631835938
1030,0.147705078125,-0.0433349609375,-1.1922607421875,-0.366412213740458,-3.6106870229007635,-0.12213740458015267,0.002335071563720703
1015,0.146728515625,-0.0379638671875,-1.1929931640625,-0.48854961832061067,-3.7557251908396947,0.015267175572519083,0.0023190975189208984
1156,0.14404296875,-0.0438232421875,-1.1885986328125,-0.22900763358778625,-3.404580152671756,0.12213740458015267,0.0023190975189208984
1139,0.14453125,-0.0396728515625,-1.1846923828125,-0.33587786259541985,-3.549618320610687,-0.007633587786259542,0.002317667007446289
1117,0.14453125,-0.0399169921875,-1.1907958984375,-0.2366412213740458,-3.4580152671755724,-0.13740458015267176,0.0023174285888671875
1099,0.143798828125,-0.0416259765625,-1.1925048828125,-0.32061068702290074,-3.6793893129770994,0.05343511450381679,0.002317667007446289
1086,0.145751953125,-0.0372314453125,-1.1849365234375,-0.061068702290076333,-3.4580152671755724,-0.10687022900763359,0.0023179054260253906
1075,0.142333984375,-0.0391845703125,-1.1829833984375,-0.2824427480916031,-3.519083969465649,0.022900763358778626,0.0023183822631835938
1058,0.140869140625,-0.0404052734375,-1.1822509765625,-0.20610687022900764,-3.618320610687023,0.015267175572519083,0.002317190170288086
1035,0.142333984375,-0.0399169921875,-1.1856689453125,-0.16793893129770993,-3.5877862595419847,0.08396946564885496,0.002329587936401367
1098,0.13623046875,-0.0411376953125,-1.1956787109375,-0.25190839694656486,-3.3587786259541983,0.13740458015267176,0.0023179054260253906
1153,0.14306640625,-0.0418701171875,-1.1842041015625,-0.1450381679389313,-3.5343511450381677,0.05343511450381679,0.002318143844604492
1129,0.137451171875,-0.0396728515625,-1.1868896484375,-0.3435114503816794,-3.564885496183206,0.1450381679389313,0.002317667007446289
1104,0.139404296875,-0.0391845703125,-1.1925048828125,-0.12213740458015267,-3.6793893129770994,-0.05343511450381679,0.0023174285888671875
1091,0.14111328125,-0.0455322265625,-1.1885986328125,-0.3282442748091603,-3.5114503816793894,-0.04580152671755725,0.0023186206817626953
1081,0.14208984375,-0.0418701171875,-1.1927490234375,-0.08396946564885496,-3.595419847328244,-0.08396946564885496,0.0023174285888671875
1069,0.1357421875,-0.0462646484375,-1.1898193359375,-0.15267175572519084,-3.595419847328244,0.05343511450381679,0.002317667007446289
1050,0.143798828125,-0.0369873046875,-1.1981201171875,-0.21374045801526717,-3.2900763358778624,0.04580152671755725,0.0023183822631835938
1028,0.141357421875,-0.0421142578125,-1.1844482421875,0.030534351145038167,-3.4656488549618323,-0.07633587786259542,0.002317667007446289
1153,0.141845703125,-0.0404052734375,-1.1903076171875,-0.183206106870229,-3.572519083969466,0.13740458015267176,0.002318143844604492
1160,0.135986328125,-0.0423583984375,-1.1910400390625,-0.22900763358778625,-3.49618320610687,-0.08396946564885496,0.0023186206817626953
1138,0.141845703125,-0.0399169921875,-1.1881103515625,-0.09923664122137404,-3.427480916030534,-0.022900763358778626,0.0023190975189208984
1117,0.13818359375,-0.0372314453125,-1.2020263671875,-0.10687022900763359,-3.3893129770992365,0.022900763358778626,0.0023174285888671875
1104,0.13916015625,-0.0389404296875,-1.1956787109375,-0.04580152671755725,-3.450381679389313,0.030534351145038167,0.0023193359375
1091,0.1435546875,-0.0374755859375,-1.2027587890625,-0.16030534351145037,-3.6106870229007635,0.10687022900763359,0.002318143844604492
1076,0.136962890625,-0.0416259765625,-1.1934814453125,-0.12213740458015267,-3.4732824427480917,0.09923664122137404,0.0023217201232910156
1053,0.137939453125,-0.0411376953125,-1.1866455078125,0.0,-3.5572519083969465,-0.04580152671755725,0.0023193359375
1050,0.14306640625,-0.0426025390625,-1.1873779296875,-0.06870229007633588,-3.435114503816794,0.030534351145038167,0.0023157596588134766
1164,0.138916015625,-0.0391845703125,-1.2032470703125,-0.04580152671755725,-3.5267175572519083,0.0916030534351145,0.0023179054260253906
1141,0.137451171875,-0.0399169921875,-1.1949462890625,-0.19083969465648856,-3.381679389312977,0.04580152671755725,0.002318143844604492
1116,0.136474609375,-0.0445556640625,-1.1954345703125,-0.07633587786259542,-3.2977099236641223,0.07633587786259542,0.002317667007446289
1098,0.134521484375,-0.0386962890625,-1.1844482421875,0.007633587786259542,-3.5343511450381677,0.022900763358778626,0.0023343563079833984
1082,0.14111328125,-0.0447998046875,-1.1947021484375,-0.1297709923664122,-3.3053435114503817,0.007633587786259542,0.0023250579833984375
1068,0.136962890625,-0.0374755859375,-1.1851806640625,-0.09923664122137404,-3.6564885496183206,-0.11450381679389313,0.0023272037506103516
1052,0.136474609375,-0.0352783203125,-1.1973876953125,0.0,-3.4580152671755724,0.12213740458015267,0.002315998077392578
1029,0.14453125,-0.0377197265625,-1.1949462890625,-0.12213740458015267,-3.282442748091603,-0.13740458015267176,0.0023157596588134766
1090,0.14794921875,-0.0389404296875,-1.1920166015625,-0.17557251908396945,-3.49618320610687,0.030534351145038167,0.0023169517517089844
1131,0.142822265625,-0.0450439453125,-1.1888427734375,0.0,-3.3206106870229006,0.0,0.0024459362030029297
1109,0.13330078125,-0.0384521484375,-1.1888427734375,-0.08396946564885496,-3.3053435114503817,0.17557251908396945,0.002324342727661133
1085,0.144775390625,-0.0421142578125,-1.1925048828125,-0.0916030534351145,-3.3893129770992365,-0.10687022900763359,0.0023179054260253906
1075,0.142333984375,-0.0396728515625,-1.1888427734375,-0.15267175572519084,-3.4885496183206106,0.03816793893129771,0.0023190975189208984
1063,0.139892578125,-0.0367431640625,-1.1807861328125,-0.22900763358778625,-3.3893129770992365,0.08396946564885496,0.0023186206817626953
1051,0.141845703125,-0.0445556640625,-1.1890869140625,-0.08396946564885496,-3.435114503816794,0.030534351145038167,0.002318143844604492
1029,0.139404296875,-0.0384521484375,-1.1893310546875,-0.10687022900763359,-3.4580152671755724,-0.022900763358778626,0.002334117889404297
1011,0.138427734375,-0.0408935546875,-1.1905517578125,0.007633587786259542,-3.450381679389313,0.05343511450381679,0.0023193359375
1135,0.142333984375,-0.0418701171875,-1.1851806640625,-0.16793893129770993,-3.549618320610687,0.12213740458015267,0.0023186206817626953
1120,0.137939453125,-0.0421142578125,-1.1834716796875,-0.061068702290076333,-3.5801526717557253,-0.030534351145038167,0.002317190170288086
1098,0.138916015625,-0.0389404296875,-1.1905517578125,-0.10687022900763359,-3.3587786259541983,-0.06870229007633588,0.002318143844604492
1081,0.142333984375,-0.0443115234375,-1.2000732421875,0.0,-3.4122137404580153,0.09923664122137404,0.0023174285888671875
1068,0.14208984375,-0.0367431640625,-1.1954345703125,-0.26717557251908397,-3.4427480916030535,0.13740458015267176,0.0023164749145507812
1056,0.14501953125,-0.0357666015625,-1.1854248046875,-0.10687022900763359,-3.404580152671756,0.007633587786259542,0.0023186206817626953
1039,0.143310546875,-0.0433349609375,-1.1868896484375,-0.0916030534351145,-3.4732824427480917,0.05343511450381679,0.002317667007446289
1018,0.14404296875,-0.0396728515625,-1.2000732421875,-0.05343511450381679,-3.33587786259542,0.06870229007633588,0.002317190170288086
1074,0.137939453125,-0.0406494140625,-1.1866455078125,-0.06870229007633588,-3.3206106870229006,0.05343511450381679,0.002317190170288086
1143,0.14013671875,-0.0399169921875,-1.1895751953125,-0.05343511450381679,-3.3587786259541983,0.05343511450381679,0.0023169517517089844
1121,0.140869140625,-0.0440673828125,-1.1903076171875,-0.015267175572519083,-3.450381679389313,-0.21374045801526717,0.002335071563720703
1100,0.141845703125,-0.0406494140625,-1.1866455078125,-0.06870229007633588,-3.4885496183206106,0.0,0.002320528030395508
1085,0.147705078125,-0.0404052734375,-1.1961669921875,0.0,-3.5419847328244276,0.10687022900763359,0.0023183822631835938
1076,0.147216796875,-0.0394287109375,-1.1998291015625,-0.11450381679389313,-3.282442748091603,0.0,0.002315998077392578
1063,0.138671875,-0.0404052734375,-1.1898193359375,-0.08396946564885496,-3.2748091603053435,-0.08396946564885496,0.002315998077392578
1046,0.138671875,-0.0421142578125,-1.1951904296875,-0.13740458015267176,-3.236641221374046,0.03816793893129771,0.002312898635864258
1025,0.14404296875,-0.0408935546875,-1.1859130859375,0.007633587786259542,-3.549618320610687,-0.08396946564885496,0.0023250579833984375
1140,0.14111328125,-0.0418701171875,-1.1888427734375,0.022900763358778626,-3.595419847328244,-0.05343511450381679,0.0023157596588134766
1149,0.150634765625,-0.0443115234375,-1.1878662109375,-0.03816793893129771,-3.3893129770992365,0.11450381679389313,0.002313852310180664
1125,0.141845703125,-0.0386962890625,-1.1932373046875,-0.07633587786259542,-3.4885496183206106,0.22137404580152673,0.002315044403076172
1103,0.143310546875,-0.0364990234375,-1.1898193359375,-0.05343511450381679,-3.4656488549618323,0.08396946564885496,0.002313852310180664
1093,0.14111328125,-0.0477294921875,-1.1937255859375,0.05343511450381679,-3.4122137404580153,-0.030534351145038167,0.002314329147338867
1080,0.13818359375,-0.0435791015625,-1.1905517578125,-0.061068702290076333,-3.5267175572519083,-0.10687022900763359,0.002313375473022461
1066,0.138427734375,-0.0465087890625,-1.1907958984375,-0.1450381679389313,-3.5801526717557253,0.03816793893129771,0.002320528030395508
1043,0.148681640625,-0.0477294921875,-1.1944580078125,-0.08396946564885496,-3.519083969465649,-0.030534351145038167,0.0023245811462402344
1036,0.142822265625,-0.0418701171875,-1.1937255859375,-0.04580152671755725,-3.5343511450381677,0.09923664122137404,0.002320528030395508
1143,0.1435546875,-0.0469970703125,-1.1876220703125,0.09923664122137404,-3.4122137404580153,-0.061068702290076333,0.0023183822631835938
1121,0.142822265625,-0.0465087890625,-1.1895751953125,-0.19083969465648856,-3.4885496183206106,0.0,0.0023174285888671875
1097,0.14404296875,-0.0438232421875,-1.1839599609375,-0.10687022900763359,-3.5801526717557253,0.13740458015267176,0.0023162364959716797
1076,0.142822265625,-0.0426025390625,-1.1890869140625,-0.05343511450381679,-3.595419847328244,0.0,0.0023338794708251953
1065,0.139404296875,-0.0399169921875,-1.1898193359375,-0.17557251908396945,-3.49618320610687,0.007633587786259542,0.002316713333129883
1055,0.13671875,-0.0438232421875,-1.1864013671875,0.06870229007633588,-3.6564885496183206,0.183206106870229,0.0023193359375
1035,0.14453125,-0.0379638671875,-1.1859130859375,-0.10687022900763359,-3.480916030534351,-0.17557251908396945,0.0023162364959716797
1015,0.13623046875,-0.0357666015625,-1.1881103515625,-0.19083969465648856,-3.5877862595419847,-0.20610687022900764,0.0023183822631835938
1071,0.139404296875,-0.0330810546875,-1.1927490234375,0.09923664122137404,-3.404580152671756,0.09923664122137404,0.002318859100341797
1111,0.142822265625,-0.0455322265625,-1.1878662109375,0.015267175572519083,-3.519083969465649,0.09923664122137404,0.0023179054260253906
1086,0.14111328125,-0.0411376953125,-1.1927490234375,0.0,-3.5114503816793894,0.007633587786259542,0.002318859100341797
1066,0.1376953125,-0.0428466796875,-1.1929931640625,-0.16793893129770993,-3.480916030534351,-0.15267175572519084,0.0023152828216552734
1054,0.137939453125,-0.0379638671875,-1.1932373046875,-0.12213740458015267,-3.572519083969466,-0.05343511450381679,0.002329587936401367
1044,0.14013671875,-0.0374755859375,-1.1810302734375,-0.022900763358778626,-3.6946564885496183,-0.007633587786259542,0.0024499893188476562
1035,0.14013671875,-0.0455322265625,-1.1859130859375,0.007633587786259542,-3.236641221374046,0.05343511450381679,0.0023250579833984375
1013,0.141357421875,-0.0386962890625,-1.1905517578125,-0.022900763358778626,-3.4122137404580153,-0.09923664122137404,0.0023374557495117188
997,0.14111328125,-0.0445556640625,-1.1905517578125,0.030534351145038167,-3.5114503816793894,0.022900763358778626,0.002323627471923828
1158,0.138671875,-0.0382080078125,-1.2003173828125,0.03816793893129771,-3.7557251908396947,0.16793893129770993,0.0023200511932373047
1139,0.144775390625,-0.0438232421875,-1.1849365234375,0.0,-3.648854961832061,-0.022900763358778626,0.002317667007446289
1117,0.148193359375,-0.0438232421875,-1.1878662109375,-0.007633587786259542,-3.5267175572519083,0.0,0.0023186206817626953
1097,0.138427734375,-0.0413818359375,-1.1934814453125,0.03816793893129771,-3.549618320610687,0.17557251908396945,0.0023164749145507812
1081,0.13916015625,-0.0364990234375,-1.1895751953125,0.11450381679389313,-3.4732824427480917,-0.07633587786259542,0.0023186206817626953
1069,0.14013671875,-0.0474853515625,-1.1898193359375,-0.10687022900763359,-3.5267175572519083,0.1297709923664122,0.002326488494873047
1053,0.140380859375,-0.0311279296875,-1.1871337890625,-0.03816793893129771,-3.33587786259542,0.03816793893129771,0.0023174285888671875
1031,0.146484375,-0.0343017578125,-1.2010498046875,0.11450381679389313,-3.5572519083969465,0.022900763358778626,0.002317667007446289
1094,0.141845703125,-0.0394287109375,-1.1878662109375,-0.0916030534351145,-3.2977099236641223,0.10687022900763359,0.002317190170288086
1136,0.14453125,-0.0430908203125,-1.1868896484375,0.1297709923664122,-3.5267175572519083,0.022900763358778626,0.0023179054260253906
1109,0.140380859375,-0.0386962890625,-1.1888427734375,0.0,-3.50381679389313,-0.03816793893129771,0.002316713333129883
1085,0.1396484375,-0.0423583984375,-1.2071533203125,0.07633587786259542,-3.572519083969466,0.0916030534351145,0.0024614334106445312
1068,0.1474609375,-0.0386962890625,-1.1815185546875,-0.08396946564885496,-3.427480916030534,0.08396946564885496,0.0023314952850341797
1056,0.145263671875,-0.0362548828125,-1.1817626953125,0.21374045801526717,-3.564885496183206,0.07633587786259542,0.002317190170288086
1041,0.138671875,-0.0352783203125,-1.1824951171875,-0.03816793893129771,-3.6793893129770994,0.2366412213740458,0.0023186206817626953
1021,0.13818359375,-0.0413818359375,-1.1744384765625,0.06870229007633588,-3.2061068702290076,0.007633587786259542,0.0023183822631835938
999,0.138916015625,-0.0360107421875,-1.1998291015625,-0.183206106870229,-3.3740458015267176,-0.07633587786259542,0.002318143844604492
1080,0.136962890625,-0.0406494140625,-1.1842041015625,0.11450381679389313,-3.480916030534351,0.05343511450381679,0.0023186206817626953
1079,0.14599609375,-0.0428466796875,-1.1954345703125,-0.04580152671755725,-3.2748091603053435,0.10687022900763359,0.0023174285888671875
1057,0.142333984375,-0.0401611328125,-1.1829833984375,0.11450381679389313,-3.5419847328244276,0.03816793893129771,0.0023186206817626953
1035,0.140625,-0.0426025390625,-1.1983642578125,-0.03816793893129771,-3.381679389312977,0.1297709923664122,0.0023190975189208984
1022,0.14501953125,-0.0443115234375,-1.1849365234375,0.15267175572519084,-3.5267175572519083,0.015267175572519083,0.0023183822631835938
1010,0.14501953125,-0.0369873046875,-1.2017822265625,0.0,-3.50381679389313,-0.11450381679389313,0.002317667007446289
999,0.139404296875,-0.0423583984375,-1.1844482421875,0.10687022900763359,-3.3206106870229006,0.007633587786259542,0.0023317337036132812
979,0.147705078125,-0.0404052734375,-1.1893310546875,0.0,-3.5877862595419847,-0.007633587786259542,0.0023207664489746094
986,0.144287109375,-0.0423583984375,-1.1883544921875,-0.07633587786259542,-3.427480916030534,-0.12213740458015267,0.0023174285888671875
1066,0.140625,-0.0438232421875,-1.1929931640625,0.08396946564885496,-3.351145038167939,0.0,0.0023186206817626953
1043,0.144287109375,-0.0408935546875,-1.1971435546875,-0.06870229007633588,-3.4732824427480917,0.17557251908396945,0.002315521240234375
1023,0.143310546875,-0.0455322265625,-1.1961669921875,0.07633587786259542,-3.427480916030534,0.03816793893129771,0.002318143844604492
1006,0.142822265625,-0.0430908203125,-1.1917724609375,-0.04580152671755725,-3.5877862595419847,0.015267175572519083,0.0023183822631835938
998,0.143798828125,-0.0455322265625,-1.1912841796875,-0.09923664122137404,-3.4885496183206106,-0.007633587786259542,0.002318143844604492
988,0.1396484375,-0.0504150390625,-1.1915283203125,-0.030534351145038167,-3.5267175572519083,-0.05343511450381679,0.0023193359375
975,0.1474609375,-0.0408935546875,-1.1890869140625,-0.11450381679389313,-3.6717557251908395,0.022900763358778626,0.002317190170288086
955,0.140625,-0.0401611328125,-1.1932373046875,0.04580152671755725,-3.4122137404580153,0.16793893129770993,0.002317667007446289
1083,0.139404296875,-0.0413818359375,-1.1947021484375,-0.1297709923664122,-3.6564885496183206,-0.04580152671755725,0.0023174285888671875
1109,0.143310546875,-0.0462646484375,-1.1927490234375,-0.12213740458015267,-3.4198473282442747,-0.007633587786259542,0.0023183822631835938
1087,0.137451171875,-0.0423583984375,-1.1827392578125,-0.04580152671755725,-3.4732824427480917,0.09923664122137404,0.0023202896118164062
1064,0.1435546875,-0.0460205078125,-1.1893310546875,0.04580152671755725,-3.5572519083969465,0.022900763358778626,0.0023169517517089844
1047,0.14404296875,-0.0440673828125,-1.1864013671875,-0.13740458015267176,-3.5419847328244276,0.007633587786259542,0.0023169517517089844
1033,0.147216796875,-0.0467529296875,-1.1839599609375,-0.030534351145038167,-3.648854961832061,0.0,0.0023174285888671875
1020,0.1416015625,-0.0477294921875,-1.1925048828125,-0.061068702290076333,-3.4580152671755724,-0.030534351145038167,0.0023174285888671875
1001,0.140869140625,-0.0435791015625,-1.1893310546875,-0.061068702290076333,-3.5267175572519083,-0.08396946564885496,0.0023193359375
984,0.14013671875,-0.0445556640625,-1.1868896484375,0.03816793893129771,-3.549618320610687,0.11450381679389313,0.002317667007446289
1142,0.146240234375,-0.0399169921875,-1.1844482421875,-0.007633587786259542,-3.4122137404580153,-0.13740458015267176,0.002317190170288086
1127,0.15234375,-0.0413818359375,-1.1898193359375,-0.05343511450381679,-3.5801526717557253,0.05343511450381679,0.0023174285888671875
1103,0.14111328125,-0.0396728515625,-1.1842041015625,0.0,-3.5572519083969465,-0.007633587786259542,0.0023174285888671875
1082,0.13818359375,-0.0421142578125,-1.2000732421875,-0.1297709923664122,-3.717557251908397,0.007633587786259542,0.002315998077392578
1071,0.140869140625,-0.0401611328125,-1.1888427734375,-0.04580152671755725,-3.519083969465649,-0.13740458015267176,0.0023183822631835938
1061,0.14306640625,-0.0435791015625,-1.1951904296875,-0.03816793893129771,-3.5114503816793894,0.1297709923664122,0.0023186206817626953
1046,0.150146484375,-0.0408935546875,-1.1954345703125,0.007633587786259542,-3.450381679389313,-0.08396946564885496,0.0023169517517089844
1027,0.14111328125,-0.0426025390625,-1.1859130859375,-0.06870229007633588,-3.7709923664122136,-0.03816793893129771,0.0023193359375
1052,0.134765625,-0.0445556640625,-1.1993408203125,0.015267175572519083,-3.4656488549618323,-0.022900763358778626,0.002317667007446289
1144,0.1357421875,-0.0413818359375,-1.1956787109375,0.061068702290076333,-3.5801526717557253,-0.25190839694656486,0.0023174285888671875
1119,0.14697265625,-0.0421142578125,-1.1812744140625,-0.11450381679389313,-3.3282442748091605,0.030534351145038167,0.0023179054260253906
1096,0.1416015625,-0.0323486328125,-1.1990966796875,-0.03816793893129771,-3.7022900763358777,0.03816793893129771,0.002318143844604492
1078,0.1435546875,-0.0435791015625,-1.1844482421875,-0.16030534351145037,-3.427480916030534,0.08396946564885496,0.002318859100341797
1065,0.14697265625,-0.0352783203125,-1.1888427734375,-0.10687022900763359,-3.618320610687023,-0.1450381679389313,0.0023162364959716797
1054,0.140380859375,-0.0440673828125,-1.2012939453125,-0.07633587786259542,-3.50381679389313,0.0,0.0023179054260253906
1035,0.141845703125,-0.0369873046875,-1.1905517578125,0.0,-3.427480916030534,-0.1297709923664122,0.0023152828216552734
1015,0.138916015625,-0.0469970703125,-1.1942138671875,-0.09923664122137404,-3.5267175572519083,-0.015267175572519083,0.0023162364959716797
1062,0.1435546875,-0.0421142578125,-1.1790771484375,0.08396946564885496,-3.7557251908396947,-0.04580152671755725,0.0023183822631835938
1083,0.141845703125,-0.0399169921875,-1.1873779296875,-0.26717557251908397,-3.5343511450381677,-0.007633587786259542,0.002317190170288086
1063,0.1396484375,-0.0430908203125,-1.1937255859375,-0.03816793893129771,-3.5572519083969465,-0.10687022900763359,0.002318143844604492
1045,0.14111328125,-0.0472412109375,-1.1864013671875,-0.08396946564885496,-3.435114503816794,-0.03816793893129771,0.0023174285888671875
1034,0.139892578125,-0.0399169921875,-1.1912841796875,0.007633587786259542,-3.595419847328244,0.007633587786259542,0.002317667007446289
1022,0.141845703125,-0.0435791015625,-1.1922607421875,-0.1297709923664122,-3.5114503816793894,0.022900763358778626,0.0023169517517089844
1011,0.143310546875,-0.0418701171875,-1.1932373046875,0.030534351145038167,-3.648854961832061,0.13740458015267176,0.002317667007446289
988,0.142333984375,-0.0399169921875,-1.1878662109375,-0.21374045801526717,-3.2442748091603053,-0.1297709923664122,0.002320528030395508
973,0.142333984375,-0.0345458984375,-1.1917724609375,-0.030534351145038167,-3.618320610687023,0.0,0.0023202896118164062
1090,0.14111328125,-0.0347900390625,-1.1976318359375,-0.11450381679389313,-3.435114503816794,0.022900763358778626,0.0023164749145507812
1067,0.135498046875,-0.0386962890625,-1.1834716796875,-0.12213740458015267,-3.183206106870229,0.030534351145038167,0.002318143844604492
1045,0.140625,-0.0350341796875,-1.1888427734375,-0.030534351145038167,-3.6030534351145036,-0.007633587786259542,0.002317190170288086
1028,0.139892578125,-0.0389404296875,-1.1973876953125,-0.08396946564885496,-3.4580152671755724,0.0,0.0023174285888671875
1017,0.14013671875,-0.0462646484375,-1.1907958984375,0.0,-3.4580152671755724,-0.06870229007633588,0.0024781227111816406
1009,0.137451171875,-0.0396728515625,-1.1910400390625,0.022900763358778626,-3.4122137404580153,0.13740458015267176,0.0023255348205566406
991,0.1455078125,-0.0377197265625,-1.1866455078125,-0.1450381679389313,-3.3969465648854964,0.022900763358778626,0.0023183822631835938
970,0.14453125,-0.0423583984375,-1.1883544921875,-0.22900763358778625,-3.3435114503816794,0.0916030534351145,0.0023195743560791016
1011,0.14453125,-0.0377197265625,-1.1981201171875,0.022900763358778626,-3.5114503816793894,0.08396946564885496,0.002317667007446289
1035,0.141357421875,-0.0352783203125,-1.1864013671875,-0.2595419847328244,-3.213740458015267,0.183206106870229,0.0023169517517089844
1013,0.13916015625,-0.0411376953125,-1.1893310546875,-0.1984732824427481,-3.5801526717557253,0.007633587786259542,0.0023186206817626953
993,0.13818359375,-0.0382080078125,-1.1837158203125,-0.13740458015267176,-3.4580152671755724,0.0,0.002317190170288086
983,0.137451171875,-0.0379638671875,-1.1888427734375,-0.13740458015267176,-3.49618320610687,0.04580152671755725,0.0023174285888671875
974,0.139892578125,-0.0469970703125,-1.1959228515625,-0.05343511450381679,-3.4885496183206106,0.007633587786259542,0.0023179054260253906
967,0.136474609375,-0.0418701171875,-1.1842041015625,-0.12213740458015267,-3.6412213740458017,0.007633587786259542,0.0023186206817626953
948,0.137939453125,-0.0391845703125,-1.1890869140625,-0.12213740458015267,-3.50381679389313,-0.08396946564885496,0.002332925796508789
931,0.141357421875,-0.0426025390625,-1.1978759765625,0.08396946564885496,-3.5267175572519083,0.0916030534351145,0.0023190975189208984
1054,0.1416015625,-0.0411376953125,-1.2008056640625,-0.20610687022900764,-3.572519083969466,0.0,0.0023193359375
1043,0.138671875,-0.0389404296875,-1.1927490234375,-0.11450381679389313,-3.3969465648854964,-0.04580152671755725,0.002315044403076172
1023,0.13818359375,-0.0382080078125,-1.1978759765625,-0.12213740458015267,-3.4885496183206106,0.04580152671755725,0.0023174285888671875
1005,0.14501953125,-0.0443115234375,-1.1954345703125,-0.030534351145038167,-3.4580152671755724,0.007633587786259542,0.002317667007446289
996,0.140869140625,-0.0379638671875,-1.1949462890625,-0.04580152671755725,-3.480916030534351,-0.04580152671755725,0.0023186206817626953
985,0.1435546875,-0.0455322265625,-1.1873779296875,-0.05343511450381679,-3.4122137404580153,0.3282442748091603,0.0023179054260253906
971,0.14208984375,-0.0382080078125,-1.1990966796875,-0.06870229007633588,-3.49618320610687,0.007633587786259542,0.0023164749145507812
954,0.1396484375,-0.0450439453125,-1.1866455078125,-0.0916030534351145,-3.3893129770992365,0.007633587786259542,0.002330303192138672
949,0.143310546875,-0.0360107421875,-1.1844482421875,-0.11450381679389313,-3.5801526717557253,0.0916030534351145,0.002317667007446289
1022,0.13671875,-0.0423583984375,-1.1944580078125,-0.030534351145038167,-3.435114503816794,-0.05343511450381679,0.0023241043090820312
1002,0.1396484375,-0.0418701171875,-1.1866455078125,-0.16030534351145037,-3.4732824427480917,0.19083969465648856,0.0023183822631835938
981,0.140625,-0.0374755859375,-1.1900634765625,-0.04580152671755725,-3.3740458015267176,-0.030534351145038167,0.0023202896118164062
969,0.138916015625,-0.0406494140625,-1.1876220703125,-0.007633587786259542,-3.4198473282442747,0.015267175572519083,0.0023190975189208984
962,0.14306640625,-0.0445556640625,-1.1849365234375,0.0,-3.2977099236641223,-0.03816793893129771,0.0023169517517089844
953,0.14306640625,-0.0450439453125,-1.1861572265625,0.007633587786259542,-3.5114503816793894,0.05343511450381679,0.0023164749145507812
936,0.1396484375,-0.0452880859375,-1.1824951171875,-0.06870229007633588,-3.381679389312977,0.0,0.0023174285888671875
916,0.13818359375,-0.0418701171875,-1.2032470703125,-0.04580152671755725,-3.3893129770992365,-0.04580152671755725,0.0023152828216552734
991,0.136474609375,-0.0474853515625,-1.1876220703125,-0.022900763358778626,-3.49618320610687,-0.015267175572519083,0.002318143844604492
1014,0.1416015625,-0.0472412109375,-1.1939697265625,-0.2595419847328244,-3.480916030534351,0.022900763358778626,0.0023162364959716797
994,0.139404296875,-0.0460205078125,-1.1834716796875,0.022900763358778626,-3.4656488549618323,-0.05343511450381679,0.0023336410522460938
972,0.139404296875,-0.0421142578125,-1.1939697265625,-0.07633587786259542,-3.6259541984732824,0.08396946564885496,0.002482891082763672
966,0.142578125,-0.0435791015625,-1.1917724609375,-0.1450381679389313,-3.5419847328244276,0.0,0.002330303192138672
956,0.140625,-0.0389404296875,-1.1961669921875,-0.1297709923664122,-3.5114503816793894,0.1450381679389313,0.002321958541870117
941,0.141845703125,-0.0411376953125,-1.1890869140625,-0.21374045801526717,-3.5114503816793894,0.0,0.0024085044860839844
921,0.144287109375,-0.0374755859375,-1.1954345703125,0.0916030534351145,-3.6106870229007635,0.0916030534351145,0.002323150634765625
967,0.144287109375,-0.0364990234375,-1.1820068359375,-0.07633587786259542,-3.549618320610687,0.061068702290076333,0.002321004867553711
1070,0.141357421875,-0.0426025390625,-1.1878662109375,0.03816793893129771,-3.66412213740458,0.015267175572519083,0.0023207664489746094
1044,0.140625,-0.0421142578125,-1.1954345703125,-0.07633587786259542,-3.7022900763358777,0.03816793893129771,0.0023190975189208984
1020,0.139892578125,-0.0350341796875,-1.1929931640625,-0.16030534351145037,-3.4198473282442747,0.15267175572519084,0.002319812774658203
1004,0.140380859375,-0.0430908203125,-1.1954345703125,0.04580152671755725,-3.6412213740458017,-0.07633587786259542,0.0023190975189208984
991,0.145751953125,-0.0421142578125,-1.1868896484375,-0.1297709923664122,-3.435114503816794,-0.11450381679389313,0.002318859100341797
982,0.1435546875,-0.0455322265625,-1.1912841796875,-0.15267175572519084,-3.4580152671755724,0.0,0.002323627471923828
966,0.14453125,-0.0433349609375,-1.1929931640625,-0.007633587786259542,-3.564885496183206,0.1450381679389313,0.0023164749145507812
945,0.13818359375,-0.0404052734375,-1.1898193359375,0.0,-3.50381679389313,-0.04580152671755725,0.0023200511932373047
1028,0.1376953125,-0.0406494140625,-1.1915283203125,-0.09923664122137404,-3.6106870229007635,-0.022900763358778626,0.002315998077392578
1078,0.14404296875,-0.0433349609375,-1.1842041015625,-0.1450381679389313,-3.6259541984732824,0.03816793893129771,0.0023186206817626953
1055,0.142333984375,-0.0401611328125,-1.1888427734375,-0.10687022900763359,-3.3282442748091605,-0.1297709923664122,0.0023186206817626953
1034,0.146728515625,-0.0394287109375,-1.1951904296875,-0.10687022900763359,-3.5343511450381677,0.07633587786259542,0.0023186206817626953
1021,0.146240234375,-0.0430908203125,-1.1851806640625,-0.03816793893129771,-3.5343511450381677,-0.04580152671755725,0.0023186206817626953
1011,0.142578125,-0.0467529296875,-1.1925048828125,-0.07633587786259542,-3.427480916030534,0.015267175572519083,0.002317667007446289
998,0.136962890625,-0.0362548828125,-1.1871337890625,-0.09923664122137404,-3.435114503816794,-0.19083969465648856,0.002318859100341797
979,0.140380859375,-0.0386962890625,-1.1776123046875,-0.13740458015267176,-3.2519083969465647,-0.06870229007633588,0.0023190975189208984
960,0.139892578125,-0.0423583984375,-1.1851806640625,-0.03816793893129771,-3.549618320610687,0.16030534351145037,0.0023186206817626953
1095,0.142333984375,-0.0384521484375,-1.1832275390625,-0.22900763358778625,-3.6106870229007635,0.007633587786259542,0.0023183822631835938
1083,0.140380859375,-0.0438232421875,-1.1968994140625,-0.06870229007633588,-3.450381679389313,0.17557251908396945,0.0023183822631835938
1061,0.13916015625,-0.0428466796875,-1.1939697265625,-0.0916030534351145,-3.5877862595419847,-0.061068702290076333,0.002318143844604492
1041,0.1435546875,-0.0421142578125,-1.1849365234375,-0.20610687022900764,-3.33587786259542,-0.007633587786259542,0.0023183822631835938
1029,0.140869140625,-0.0430908203125,-1.1873779296875,-0.08396946564885496,-3.6106870229007635,0.183206106870229,0.0023179054260253906
1015,0.132568359375,-0.0443115234375,-1.1949462890625,0.0,-3.3587786259541983,-0.007633587786259542,0.002318143844604492
1001,0.14404296875,-0.0462646484375,-1.1929931640625,-0.0916030534351145,-3.4656488549618323,0.007633587786259542,0.002460002899169922
982,0.141357421875,-0.0401611328125,-1.1898193359375,0.0,-3.3587786259541983,-0.03816793893129771,0.0023279190063476562
1001,0.138427734375,-0.0472412109375,-1.1951904296875,-0.0916030534351145,-3.4198473282442747,0.06870229007633588,0.0023186206817626953
1077,0.137939453125,-0.0433349609375,-1.1915283203125,-0.1297709923664122,-3.5572519083969465,0.007633587786259542,0.0023193359375
1054,0.145263671875,-0.0452880859375,-1.1842041015625,0.007633587786259542,-3.4122137404580153,0.0,0.002318859100341797
1029,0.147705078125,-0.0401611328125,-1.1881103515625,-0.26717557251908397,-3.427480916030534,0.05343511450381679,0.002315521240234375
1015,0.14111328125,-0.0477294921875,-1.1910400390625,-0.09923664122137404,-3.3969465648854964,-0.061068702290076333,0.0023186206817626953
1005,0.136962890625,-0.0406494140625,-1.1944580078125,0.15267175572519084,-3.435114503816794,0.24427480916030533,0.0023190975189208984
992,0.1435546875,-0.0452880859375,-1.1905517578125,-0.16793893129770993,-3.572519083969466,0.09923664122137404,0.002317190170288086
971,0.145751953125,-0.0433349609375,-1.1824951171875,-0.21374045801526717,-3.5114503816793894,-0.09923664122137404,0.0023183822631835938
953,0.1416015625,-0.0469970703125,-1.1934814453125,-0.11450381679389313,-3.5419847328244276,-0.022900763358778626,0.0023190975189208984
1051,0.14013671875,-0.0391845703125,-1.1837158203125,-0.13740458015267176,-3.4732824427480917,0.04580152671755725,0.002318859100341797
1067,0.1396484375,-0.0406494140625,-1.1939697265625,0.0,-3.519083969465649,0.04580152671755725,0.0023174285888671875
1045,0.143310546875,-0.0445556640625,-1.1885986328125,-0.07633587786259542,-3.5877862595419847,0.10687022900763359,0.002315521240234375
1023,0.1455078125,-0.0438232421875,-1.1849365234375,-0.13740458015267176,-3.6106870229007635,-0.1450381679389313,0.002318143844604492
1013,0.141357421875,-0.0408935546875,-1.1915283203125,-0.030534351145038167,-3.564885496183206,0.17557251908396945,0.002318143844604492
1003,0.142333984375,-0.0389404296875,-1.1925048828125,-0.16793893129770993,-3.33587786259542,-0.15267175572519084,0.002359151840209961
991,0.135009765625,-0.0421142578125,-1.1929931640625,-0.015267175572519083,-3.5419847328244276,0.06870229007633588,0.0023207664489746094
971,0.137939453125,-0.0411376953125,-1.1949462890625,-0.061068702290076333,-3.4122137404580153,0.061068702290076333,0.002344846725463867
1000,0.141845703125,-0.0428466796875,-1.1849365234375,-0.1450381679389313,-3.549618320610687,-0.03816793893129771,0.0023267269134521484
1106,0.143310546875,-0.0455322265625,-1.1932373046875,-0.1984732824427481,-3.366412213740458,-0.19083969465648856,0.002319812774658203
1083,0.144287109375,-0.0401611328125,-1.1917724609375,-0.15267175572519084,-3.5267175572519083,0.19083969465648856,0.0023195743560791016
1060,0.138916015625,-0.0362548828125,-1.1925048828125,-0.16793893129770993,-3.4580152671755724,0.15267175572519084,0.002343416213989258
1041,0.14208984375,-0.0391845703125,-1.1932373046875,-0.1450381679389313,-3.3740458015267176,-0.015267175572519083,0.0023217201232910156
1031,0.140380859375,-0.0440673828125,-1.1868896484375,-0.061068702290076333,-3.6259541984732824,-0.007633587786259542,0.0023190975189208984
1021,0.146484375,-0.0426025390625,-1.1820068359375,-0.061068702290076333,-3.4198473282442747,0.061068702290076333,0.0023193359375
1003,0.1435546875,-0.0396728515625,-1.1873779296875,-0.21374045801526717,-3.3282442748091605,-0.07633587786259542,0.002318143844604492
982,0.1435546875,-0.0418701171875,-1.1837158203125,-0.05343511450381679,-3.572519083969466,-0.04580152671755725,0.0023183822631835938
1060,0.145263671875,-0.0450439453125,-1.1973876953125,-0.07633587786259542,-3.3969465648854964,0.061068702290076333,0.002336263656616211
1109,0.143798828125,-0.0438232421875,-1.1915283203125,0.007633587786259542,-3.5343511450381677,0.061068702290076333,0.0023200511932373047
1086,0.145263671875,-0.0396728515625,-1.1893310546875,-0.29770992366412213,-3.50381679389313,-0.1450381679389313,0.0023190975189208984
1064,0.13916015625,-0.0406494140625,-1.1925048828125,-0.04580152671755725,-3.49618320610687,0.15267175572519084,0.002317667007446289
1050,0.139892578125,-0.0404052734375,-1.1868896484375,-0.022900763358778626,-3.618320610687023,0.16030534351145037,0.0023186206817626953
1035,0.140625,-0.0404052734375,-1.1932373046875,-0.1297709923664122,-3.435114503816794,0.1297709923664122,0.002318143844604492
1021,0.138916015625,-0.0428466796875,-1.1907958984375,-0.05343511450381679,-3.4580152671755724,0.06870229007633588,0.0023174285888671875
1001,0.14501953125,-0.0345458984375,-1.1973876953125,-0.015267175572519083,-3.49618320610687,0.03816793893129771,0.0023238658905029297
1002,0.14208984375,-0.0421142578125,-1.2008056640625,-0.04580152671755725,-3.6946564885496183,0.015267175572519083,0.0023169517517089844
1151,0.13916015625,-0.0418701171875,-1.1898193359375,-0.19083969465648856,-3.5267175572519083,-0.04580152671755725,0.0023300647735595703
1132,0.144775390625,-0.0377197265625,-1.1900634765625,-0.07633587786259542,-3.519083969465649,0.030534351145038167,0.0023183822631835938
1106,0.140869140625,-0.0343017578125,-1.1978759765625,-0.015267175572519083,-3.3969465648854964,0.061068702290076333,0.002691984176635742
1085,0.14111328125,-0.0421142578125,-1.1949462890625,-0.022900763358778626,-3.435114503816794,0.0,0.002537965774536133
1072,0.1376953125,-0.0350341796875,-1.1895751953125,-0.061068702290076333,-3.4580152671755724,0.030534351145038167,0.0030341148376464844
1058,0.136962890625,-0.0386962890625,-1.1810302734375,-0.09923664122137404,-3.4885496183206106,-0.0916030534351145,0.0023603439331054688
1035,0.13720703125,-0.0401611328125,-1.1917724609375,-0.29770992366412213,-3.312977099236641,0.09923664122137404,0.0023322105407714844
1023,0.1455078125,-0.0633544921875,-1.1644287109375,-5.969465648854962,-2.183206106870229,-0.15267175572519084,0.0023195743560791016
1135,0.15673828125,-0.0352783203125,-1.2161865234375,-7.32824427480916,-6.923664122137405,-1.4961832061068703,0.002320528030395508
1121,0.141845703125,-0.0513916015625,-1.1954345703125,-10.65648854961832,-7.175572519083969,-1.213740458015267,0.0023179054260253906
1098,0.147216796875,-0.0262451171875,-1.1932373046875,-8.80916030534351,-6.740458015267175,-1.618320610687023,0.0023190975189208984
1077,0.137451171875,-0.0433349609375,-1.1817626953125,-8.106870229007633,-5.206106870229007,-1.4045801526717556,0.0023193359375
1065,0.14453125,-0.0386962890625,-1.1910400390625,-7.442748091603053,-4.977099236641221,-1.3893129770992367,0.0023183822631835938
1051,0.149169921875,-0.0374755859375,-1.1954345703125,-7.763358778625954,-5.488549618320611,-1.5648854961832062,0.0023190975189208984
1035,0.1455078125,-0.0401611328125,-1.1922607421875,-8.450381679389313,-5.870229007633588,-2.2213740458015265,0.0023186206817626953
1016,0.14794921875,-0.0269775390625,-1.1976318359375,-8.557251908396946,-5.427480916030534,-2.435114503816794,0.002318859100341797
1039,0.131591796875,-0.0350341796875,-1.1976318359375,-7.656488549618321,-4.549618320610687,-1.9083969465648856,0.002318143844604492
1132,0.137451171875,-0.0352783203125,-1.1827392578125,-5.778625954198473,-3.3206106870229006,-1.2061068702290076,0.0023195743560791016
1108,0.137451171875,-0.0391845703125,-1.1949462890625,-4.244274809160306,-3.480916030534351,-0.7251908396946565,0.002318859100341797
1085,0.140869140625,-0.0345458984375,-1.1966552734375,-2.0610687022900764,-3.801526717557252,-0.16793893129770993,0.002318143844604492
1070,0.13720703125,-0.0394287109375,-1.1990966796875,2.015267175572519,-3.236641221374046,0.8702290076335878,0.0023193359375
1053,0.1298828125,-0.0267333984375,-1.1846923828125,5.717557251908397,-0.7404580152671756,1.8854961832061068,0.0023174285888671875
1039,0.14501953125,-0.0347900390625,-1.1812744140625,8.099236641221374,0.6259541984732825,2.6106870229007635,0.0023314952850341797
1016,0.148681640625,-0.0433349609375,-1.1961669921875,7.900763358778626,1.0076335877862594,3.7022900763358777,0.0023190975189208984
993,0.14306640625,-0.0345458984375,-1.2125244140625,8.030534351145038,-0.061068702290076333,1.8702290076335877,0.0024788379669189453
1137,0.142333984375,-0.0631103515625,-1.1468505859375,1.4580152671755726,0.16793893129770993,2.6946564885496183,0.0023343563079833984
1134,0.1533203125,-0.0472412109375,-1.2005615234375,-2.984732824427481,-3.931297709923664,0.5114503816793893,0.0023190975189208984
1110,0.150390625,-0.0469970703125,-1.1998291015625,-5.984732824427481,-6.3893129770992365,-0.6793893129770993,0.0023193359375
1089,0.143310546875,-0.0438232421875,-1.1861572265625,-6.793893129770993,-6.305343511450381,-0.7251908396946565,0.0023183822631835938
1075,0.1396484375,-0.0352783203125,-1.2030029296875,-4.458015267175573,-5.236641221374046,-0.5038167938931297,0.0023190975189208984
1062,0.14404296875,-0.0299072265625,-1.1834716796875,-1.8854961832061068,-3.618320610687023,0.08396946564885496,0.0023195743560791016
1045,0.138671875,-0.0325927734375,-1.1939697265625,-0.08396946564885496,-2.5343511450381677,0.20610687022900764,0.002318143844604492
1023,0.13818359375,-0.0362548828125,-1.1893310546875,0.5419847328244275,-2.900763358778626,0.46564885496183206,0.002319812774658203
1059,0.135498046875,-0.0455322265625,-1.1995849609375,0.3282442748091603,-3.045801526717557,0.366412213740458,0.002317190170288086
1170,0.15087890625,-0.0369873046875,-1.1876220703125,-0.061068702290076333,-3.49618320610687,0.1297709923664122,0.0023174285888671875
1144,0.14453125,-0.0413818359375,-1.1866455078125,-0.5801526717557252,-3.633587786259542,-0.16030534351145037,0.0023186206817626953
1118,0.1455078125,-0.0411376953125,-1.1920166015625,-0.8320610687022901,-3.6564885496183206,0.07633587786259542,0.002318859100341797
1099,0.138427734375,-0.0382080078125,-1.1878662109375,-0.9541984732824428,-3.6946564885496183,0.09923664122137404,0.0023186206817626953
1087,0.14599609375,-0.0426025390625,-1.1846923828125,-1.1984732824427482,-3.5572519083969465,-0.16793893129770993,0.0023245811462402344
1075,0.136962890625,-0.0411376953125,-1.1937255859375,-1.3282442748091603,-3.648854961832061,0.11450381679389313,0.0023221969604492188
1055,0.138427734375,-0.0367431640625,-1.1947021484375,-1.282442748091603,-3.954198473282443,0.015267175572519083,0.002318859100341797
1032,0.137451171875,-0.0316162109375,-1.1995849609375,-1.2290076335877862,-4.076335877862595,-0.022900763358778626,0.0023193359375
1076,0.13427734375,-0.0411376953125,-1.1890869140625,-0.8244274809160306,-3.564885496183206,0.07633587786259542,0.0023458003997802734
1117,0.14404296875,-0.0377197265625,-1.1898193359375,-0.6335877862595419,-3.351145038167939,0.12213740458015267,0.002378225326538086
1093,0.140625,-0.0413818359375,-1.1976318359375,-0.5267175572519084,-3.3206106870229006,0.04580152671755725,0.0023407936096191406
1069,0.14794921875,-0.0443115234375,-1.1942138671875,-0.7251908396946565,-3.7404580152671754,-0.05343511450381679,0.0024366378784179688
1061,0.136474609375,-0.0338134765625,-1.1873779296875,-0.9312977099236641,-3.648854961832061,0.09923664122137404,0.00240325927734375
1045,0.144287109375,-0.0399169921875,-1.1947021484375,-0.4961832061068702,-3.9389312977099236,0.030534351145038167,0.0023233890533447266
1029,0.136962890625,-0.0399169921875,-1.1942138671875,-0.11450381679389313,-3.3740458015267176,0.06870229007633588,0.002321004867553711
1004,0.140380859375,-0.0377197265625,-1.1844482421875,0.37404580152671757,-3.068702290076336,0.1984732824427481,0.0023212432861328125
1029,0.138671875,-0.0296630859375,-1.1856689453125,0.816793893129771,-3.2061068702290076,0.22137404580152673,0.0023179054260253906
1169,0.13720703125,-0.0401611328125,-1.1959228515625,0.5725190839694656,-2.763358778625954,0.48091603053435117,0.0023200511932373047
1140,0.13916015625,-0.0333251953125,-1.1898193359375,0.4351145038167939,-3.351145038167939,0.15267175572519084,0.0023193359375
1113,0.1376953125,-0.0330810546875,-1.1898193359375,-0.1450381679389313,-3.549618320610687,-0.1297709923664122,0.0023183822631835938
1094,0.144287109375,-0.0343017578125,-1.1917724609375,-0.2366412213740458,-3.763358778625954,0.08396946564885496,0.0023195743560791016
1080,0.140625,-0.0377197265625,-1.1995849609375,0.007633587786259542,-3.49618320610687,0.030534351145038167,0.0023179054260253906
1065,0.13427734375,-0.0347900390625,-1.1893310546875,0.21374045801526717,-3.2061068702290076,0.12213740458015267,0.0023186206817626953
1044,0.145263671875,-0.0328369140625,-1.1917724609375,0.48091603053435117,-3.0763358778625953,0.030534351145038167,0.0023179054260253906
1019,0.139892578125,-0.0352783203125,-1.1939697265625,0.3053435114503817,-3.3435114503816794,0.2366412213740458,0.002318143844604492
1107,0.1435546875,-0.0411376953125,-1.1942138671875,0.2366412213740458,-3.2977099236641223,0.24427480916030533,0.002317190170288086
1151,0.140625,-0.0382080078125,-1.1951904296875,0.04580152671755725,-3.435114503816794,0.183206106870229,0.0023179054260253906
1125,0.141357421875,-0.0362548828125,-1.1778564453125,0.04580152671755725,-3.3206106870229006,0.007633587786259542,0.0023179054260253906
1100,0.141357421875,-0.0330810546875,-1.1898193359375,0.20610687022900764,-3.236641221374046,0.08396946564885496,0.0023169517517089844
1084,0.14599609375,-0.0362548828125,-1.1883544921875,0.21374045801526717,-3.236641221374046,0.17557251908396945,0.002317190170288086
1070,0.14306640625,-0.0413818359375,-1.1961669921875,0.22900763358778625,-3.381679389312977,0.183206106870229,0.002316713333129883
1054,0.14111328125,-0.0352783203125,-1.1944580078125,0.1450381679389313,-3.3206106870229006,0.022900763358778626,0.002318143844604492
1030,0.1435546875,-0.0377197265625,-1.1932373046875,0.03816793893129771,-3.3053435114503817,0.04580152671755725,0.002318859100341797
1006,0.13720703125,-0.0396728515625,-1.1922607421875,0.17557251908396945,-3.5572519083969465,0.3893129770992366,0.0023348331451416016
1151,0.147705078125,-0.0357666015625,-1.1868896484375,0.12213740458015267,-3.4122137404580153,0.13740458015267176,0.002322673797607422
1136,0.14013671875,-0.0345458984375,-1.1947021484375,0.11450381679389313,-3.2290076335877864,0.2824427480916031,0.0023162364959716797
1111,0.14599609375,-0.0389404296875,-1.1868896484375,0.09923664122137404,-3.2519083969465647,0.030534351145038167,0.0023186206817626953
1087,0.1455078125,-0.0401611328125,-1.1934814453125,0.04580152671755725,-3.2595419847328246,0.25190839694656486,0.0023179054260253906
1072,0.14697265625,-0.0301513671875,-1.1837158203125,0.1450381679389313,-3.3435114503816794,0.25190839694656486,0.002317190170288086
1055,0.144287109375,-0.0374755859375,-1.1942138671875,0.08396946564885496,-3.3893129770992365,0.06870229007633588,0.002318143844604492
1038,0.140380859375,-0.0426025390625,-1.1912841796875,0.03816793893129771,-3.3969465648854964,0.10687022900763359,0.0023162364959716797
1015,0.1416015625,-0.0404052734375,-1.1917724609375,0.007633587786259542,-3.3435114503816794,0.07633587786259542,0.0023186206817626953
1053,0.1416015625,-0.0345458984375,-1.1907958984375,0.007633587786259542,-3.1526717557251906,0.12213740458015267,0.002317667007446289
1166,0.135986328125,-0.0408935546875,-1.1951904296875,-0.25190839694656486,-3.3969465648854964,-0.022900763358778626,0.002318143844604492
1143,0.140625,-0.0357666015625,-1.1859130859375,-0.03816793893129771,-3.198473282442748,0.12213740458015267,0.002318859100341797
1119,0.141357421875,-0.0389404296875,-1.1995849609375,-0.12213740458015267,-3.3206106870229006,0.07633587786259542,0.0023190975189208984
1102,0.143310546875,-0.0350341796875,-1.1881103515625,-0.022900763358778626,-3.2748091603053435,0.1297709923664122,0.002318859100341797
1087,0.144287109375,-0.0399169921875,-1.1993408203125,-0.13740458015267176,-3.351145038167939,-0.061068702290076333,0.002316713333129883
1077,0.14453125,-0.0394287109375,-1.1927490234375,-0.10687022900763359,-3.450381679389313,0.15267175572519084,0.0023183822631835938
1057,0.14013671875,-0.0362548828125,-1.1844482421875,-0.2366412213740458,-3.312977099236641,0.06870229007633588,0.0023179054260253906
1035,0.14208984375,-0.0394287109375,-1.1868896484375,-0.2748091603053435,-3.49618320610687,-0.022900763358778626,0.0023190975189208984
1082,0.14111328125,-0.0330810546875,-1.1949462890625,-0.12213740458015267,-3.4885496183206106,0.09923664122137404,0.002516508102416992
1107,0.13818359375,-0.0377197265625,-1.1905517578125,0.0,-3.404580152671756,0.22900763358778625,0.0023572444915771484
1083,0.144775390625,-0.0386962890625,-1.1871337890625,-0.15267175572519084,-3.351145038167939,0.0,0.002321481704711914
1062,0.140869140625,-0.0369873046875,-1.1888427734375,-0.061068702290076333,-3.5877862595419847,0.04580152671755725,0.0023183822631835938
1049,0.144287109375,-0.0394287109375,-1.1973876953125,-0.16793893129770993,-3.381679389312977,0.022900763358778626,0.0023238658905029297
1037,0.141357421875,-0.0399169921875,-1.1956787109375,-0.04580152671755725,-3.5267175572519083,0.05343511450381679,0.0023207664489746094
1023,0.14599609375,-0.0386962890625,-1.1912841796875,-0.1297709923664122,-3.6030534351145036,-0.007633587786259542,0.0023179054260253906
1004,0.135986328125,-0.0352783203125,-1.1885986328125,-0.1450381679389313,-3.3740458015267176,-0.030534351145038167,0.002319812774658203
1008,0.14208984375,-0.0423583984375,-1.1917724609375,-0.16030534351145037,-3.427480916030534,-0.16030534351145037,0.0023190975189208984
1111,0.142822265625,-0.0396728515625,-1.1954345703125,-0.07633587786259542,-3.4580152671755724,-0.07633587786259542,0.0023305416107177734
1090,0.14111328125,-0.0379638671875,-1.1939697265625,0.022900763358778626,-3.4198473282442747,-0.08396946564885496,0.002318859100341797
1067,0.138671875,-0.0389404296875,-1.1807861328125,-0.007633587786259542,-3.633587786259542,0.10687022900763359,0.0023186206817626953
1049,0.138427734375,-0.0435791015625,-1.1868896484375,0.13740458015267176,-3.450381679389313,0.06870229007633588,0.0023195743560791016
1034,0.1376953125,-0.0386962890625,-1.1844482421875,-0.03816793893129771,-3.572519083969466,0.05343511450381679,0.002317190170288086
1021,0.143798828125,-0.0479736328125,-1.1849365234375,-0.022900763358778626,-3.5801526717557253,0.022900763358778626,0.0023190975189208984
1005,0.142333984375,-0.0396728515625,-1.1893310546875,0.03816793893129771,-3.3206106870229006,0.2900763358778626,0.0023183822631835938
983,0.140380859375,-0.0369873046875,-1.1883544921875,-0.0916030534351145,-3.4656488549618323,0.03816793893129771,0.0023179054260253906
1082,0.1435546875,-0.0386962890625,-1.2000732421875,0.06870229007633588,-3.381679389312977,0.05343511450381679,0.002318859100341797
1140,0.14111328125,-0.0382080078125,-1.1829833984375,0.03816793893129771,-3.5801526717557253,-0.08396946564885496,0.002317190170288086
1113,0.138427734375,-0.0391845703125,-1.1947021484375,0.0,-3.4580152671755724,0.09923664122137404,0.002318859100341797
1091,0.147705078125,-0.0382080078125,-1.1859130859375,0.0,-3.4656488549618323,-0.11450381679389313,0.0023152828216552734
1081,0.146728515625,-0.0367431640625,-1.1888427734375,0.03816793893129771,-3.5343511450381677,0.11450381679389313,0.0023174285888671875
1067,0.142333984375,-0.0335693359375,-1.1866455078125,-0.13740458015267176,-3.404580152671756,-0.07633587786259542,0.0023183822631835938
1055,0.14208984375,-0.0401611328125,-1.1905517578125,-0.08396946564885496,-3.49618320610687,0.04580152671755725,0.002333402633666992
1034,0.14111328125,-0.0384521484375,-1.1927490234375,-0.1297709923664122,-3.4198473282442747,-0.04580152671755725,0.0023212432861328125
1012,0.139404296875,-0.0347900390625,-1.1944580078125,-0.15267175572519084,-3.5419847328244276,0.08396946564885496,0.002317667007446289
1149,0.131591796875,-0.0406494140625,-1.1873779296875,0.0,-3.5114503816793894,0.061068702290076333,0.0023193359375
1134,0.1455078125,-0.0333251953125,-1.1937255859375,-0.13740458015267176,-3.3893129770992365,-0.04580152671755725,0.002315998077392578
1111,0.13916015625,-0.0291748046875,-1.1878662109375,0.0,-3.49618320610687,0.1297709923664122,0.0023183822631835938
1090,0.140380859375,-0.0350341796875,-1.1883544921875,0.03816793893129771,-3.366412213740458,0.03816793893129771,0.0023162364959716797
1075,0.142333984375,-0.0325927734375,-1.1910400390625,-0.007633587786259542,-3.435114503816794,0.16793893129770993,0.0023174285888671875
1062,0.14306640625,-0.0355224609375,-1.1890869140625,-0.04580152671755725,-3.351145038167939,-0.16793893129770993,0.0023200511932373047
1047,0.135986328125,-0.0352783203125,-1.1854248046875,0.05343511450381679,-3.49618320610687,-0.22137404580152673,0.002317667007446289
1025,0.134521484375,-0.0335693359375,-1.1905517578125,-0.12213740458015267,-3.4732824427480917,0.0,0.0023186206817626953
1037,0.13916015625,-0.0372314453125,-1.1907958984375,-0.015267175572519083,-3.4656488549618323,-0.03816793893129771,0.002316713333129883
1131,0.142333984375,-0.0357666015625,-1.1922607421875,0.022900763358778626,-3.450381679389313,0.12213740458015267,0.0023202896118164062
1106,0.140380859375,-0.0357666015625,-1.1864013671875,0.007633587786259542,-3.3969465648854964,-0.03816793893129771,0.002320528030395508
1081,0.142333984375,-0.0323486328125,-1.1983642578125,-0.1450381679389313,-3.3206106870229006,0.13740458015267176,0.0023179054260253906
1066,0.14697265625,-0.0369873046875,-1.1832275390625,-0.1984732824427481,-3.480916030534351,0.07633587786259542,0.002318859100341797
1051,0.139892578125,-0.0364990234375,-1.1868896484375,0.06870229007633588,-3.5343511450381677,0.08396946564885496,0.002316713333129883
1037,0.14208984375,-0.0357666015625,-1.1968994140625,-0.022900763358778626,-3.2900763358778624,0.22137404580152673,0.002317190170288086
1019,0.1376953125,-0.0321044921875,-1.1864013671875,0.0,-3.5801526717557253,0.11450381679389313,0.0023183822631835938
997,0.14013671875,-0.0418701171875,-1.1890869140625,0.007633587786259542,-3.4427480916030535,0.06870229007633588,0.002315998077392578
1136,0.1474609375,-0.0413818359375,-1.1917724609375,-0.030534351145038167,-3.4122137404580153,0.015267175572519083,0.0023179054260253906
1161,0.145263671875,-0.0418701171875,-1.1912841796875,-0.03816793893129771,-3.4198473282442747,-0.05343511450381679,0.002315044403076172
1138,0.140869140625,-0.0343017578125,-1.1978759765625,0.007633587786259542,-3.2748091603053435,0.08396946564885496,0.0023565292358398438
1115,0.143310546875,-0.0404052734375,-1.1885986328125,-0.07633587786259542,-3.404580152671756,0.07633587786259542,0.0023200511932373047
1101,0.1337890625,-0.0352783203125,-1.1837158203125,-0.015267175572519083,-3.5114503816793894,0.0,0.0023183822631835938
1087,0.14404296875,-0.0416259765625,-1.1854248046875,-0.11450381679389313,-3.4122137404580153,0.12213740458015267,0.002316713333129883
1073,0.142822265625,-0.0396728515625,-1.1861572265625,0.03816793893129771,-3.4122137404580153,-0.07633587786259542,0.0023186206817626953
1052,0.142822265625,-0.0362548828125,-1.1907958984375,-0.06870229007633588,-3.4732824427480917,0.015267175572519083,0.0023186206817626953
1056,0.13916015625,-0.0394287109375,-1.1920166015625,0.03816793893129771,-3.4122137404580153,-0.061068702290076333,0.0023174285888671875
1163,0.146728515625,-0.0345458984375,-1.1944580078125,-0.16793893129770993,-3.5419847328244276,0.183206106870229,0.002318143844604492
1139,0.137939453125,-0.0406494140625,-1.1910400390625,-0.1297709923664122,-3.435114503816794,-0.03816793893129771,0.0023186206817626953
1117,0.147705078125,-0.0413818359375,-1.1778564453125,-0.183206106870229,-3.282442748091603,0.11450381679389313,0.0023186206817626953
1099,0.138671875,-0.0413818359375,-1.1834716796875,0.015267175572519083,-3.519083969465649,0.05343511450381679,0.002318143844604492
1082,0.13818359375,-0.0406494140625,-1.1842041015625,-0.05343511450381679,-3.404580152671756,0.0916030534351145,0.0023169517517089844
1068,0.146728515625,-0.0360107421875,-1.1878662109375,-0.15267175572519084,-3.5343511450381677,-0.04580152671755725,0.0023183822631835938
1053,0.138427734375,-0.0413818359375,-1.1815185546875,-0.15267175572519084,-3.3969465648854964,0.11450381679389313,0.002317190170288086
1031,0.13916015625,-0.0401611328125,-1.1939697265625,-0.11450381679389313,-3.6412213740458017,0.16793893129770993,0.0023183822631835938
1092,0.145751953125,-0.0330810546875,-1.1959228515625,0.007633587786259542,-3.3587786259541983,0.0,0.002318143844604492
1155,0.13720703125,-0.0374755859375,-1.1817626953125,-0.19083969465648856,-3.3893129770992365,-0.04580152671755725,0.0023152828216552734
1130,0.139892578125,-0.0379638671875,-1.1912841796875,-0.15267175572519084,-3.732824427480916,0.08396946564885496,0.002440929412841797
1107,0.14404296875,-0.0389404296875,-1.1915283203125,-0.1297709923664122,-3.435114503816794,-0.09923664122137404,0.002329111099243164
1095,0.146240234375,-0.0413818359375,-1.1922607421875,-0.2748091603053435,-3.6793893129770994,0.08396946564885496,0.0023193359375
1085,0.148193359375,-0.0357666015625,-1.1988525390625,-0.2366412213740458,-3.50381679389313,0.09923664122137404,0.0023183822631835938
1074,0.138916015625,-0.0396728515625,-1.1905517578125,-0.04580152671755725,-3.4198473282442747,0.07633587786259542,0.002318859100341797
1052,0.1416015625,-0.0364990234375,-1.1873779296875,0.04580152671755725,-3.4732824427480917,-0.03816793893129771,0.0023207664489746094
1029,0.142578125,-0.0372314453125,-1.1795654296875,-0.15267175572519084,-3.4122137404580153,0.07633587786259542,0.002391815185546875
1155,0.1376953125,-0.0411376953125,-1.1944580078125,-0.11450381679389313,-3.5267175572519083,0.061068702290076333,0.002415180206298828
1141,0.142333984375,-0.0426025390625,-1.1871337890625,-0.03816793893129771,-3.3587786259541983,0.0,0.002323150634765625
1116,0.144287109375,-0.0321044921875,-1.1961669921875,-0.183206106870229,-3.519083969465649,-0.11450381679389313,0.0023207664489746094
1098,0.14794921875,-0.0347900390625,-1.1971435546875,0.022900763358778626,-3.427480916030534,-0.007633587786259542,0.0023200511932373047
1090,0.140380859375,-0.0377197265625,-1.1915283203125,-0.31297709923664124,-3.66412213740458,0.09923664122137404,0.0023260116577148438
1075,0.14453125,-0.0426025390625,-1.1888427734375,-0.22137404580152673,-3.4427480916030535,-0.030534351145038167,0.0023202896118164062
1059,0.1376953125,-0.0357666015625,-1.1907958984375,-0.007633587786259542,-3.6412213740458017,-0.08396946564885496,0.0023186206817626953
1038,0.14208984375,-0.0343017578125,-1.1912841796875,-0.17557251908396945,-3.450381679389313,-0.12213740458015267,0.0023195743560791016
1055,0.14013671875,-0.0418701171875,-1.1895751953125,-0.16793893129770993,-3.282442748091603,0.12213740458015267,0.0023193359375
1129,0.139404296875,-0.0391845703125,-1.1888427734375,-0.1984732824427481,-3.5419847328244276,0.0,0.002318143844604492
1106,0.1376953125,-0.0318603515625,-1.1949462890625,-0.12213740458015267,-3.633587786259542,0.12213740458015267,0.002318143844604492
1083,0.142822265625,-0.0384521484375,-1.1920166015625,-0.07633587786259542,-3.2900763358778624,-0.007633587786259542,0.002318143844604492
1069,0.143798828125,-0.0347900390625,-1.1873779296875,-0.007633587786259542,-3.5801526717557253,-0.015267175572519083,0.0023190975189208984
1058,0.135009765625,-0.0426025390625,-1.1864013671875,-0.030534351145038167,-3.435114503816794,-0.07633587786259542,0.002318143844604492
1047,0.14013671875,-0.0364990234375,-1.1893310546875,-0.24427480916030533,-3.6564885496183206,0.0,0.002320528030395508
1026,0.139404296875,-0.0352783203125,-1.1920166015625,-0.09923664122137404,-3.5267175572519083,0.007633587786259542,0.0023164749145507812
1007,0.143310546875,-0.0394287109375,-1.1944580078125,-0.08396946564885496,-3.5343511450381677,-0.07633587786259542,0.0023183822631835938
1099,0.140625,-0.0364990234375,-1.1964111328125,-0.1450381679389313,-3.3893129770992365,0.030534351145038167,0.0023200511932373047
1128,0.13720703125,-0.0391845703125,-1.1932373046875,-0.17557251908396945,-3.381679389312977,-0.1450381679389313,0.0023174285888671875
1106,0.13427734375,-0.0345458984375,-1.1954345703125,-0.09923664122137404,-3.4885496183206106,0.1450381679389313,0.002318859100341797
1083,0.1416015625,-0.0404052734375,-1.1929931640625,-0.1297709923664122,-3.3740458015267176,0.061068702290076333,0.0023186206817626953
1069,0.146728515625,-0.0406494140625,-1.1871337890625,-0.21374045801526717,-3.4885496183206106,0.007633587786259542,0.002319812774658203
1055,0.143798828125,-0.0379638671875,-1.1976318359375,-0.09923664122137404,-3.4732824427480917,0.1984732824427481,0.0023190975189208984
1042,0.13916015625,-0.0330810546875,-1.1912841796875,0.0,-3.4580152671755724,-0.061068702290076333,0.002318143844604492
1022,0.148193359375,-0.0379638671875,-1.1907958984375,-0.015267175572519083,-3.49618320610687,0.13740458015267176,0.0023169517517089844
1042,0.138427734375,-0.0413818359375,-1.1971435546875,-0.13740458015267176,-3.3587786259541983,0.007633587786259542,0.002317667007446289
1165,0.147216796875,-0.0411376953125,-1.1890869140625,-0.09923664122137404,-3.4732824427480917,0.08396946564885496,0.0023183822631835938
1141,0.13916015625,-0.0384521484375,-1.1917724609375,0.007633587786259542,-3.4427480916030535,0.16030534351145037,0.0023183822631835938
1117,0.142822265625,-0.0350341796875,-1.1978759765625,-0.2366412213740458,-3.549618320610687,0.03816793893129771,0.0023186206817626953
1099,0.1376953125,-0.0347900390625,-1.1973876953125,-0.2366412213740458,-3.2748091603053435,0.13740458015267176,0.002318859100341797
1085,0.138916015625,-0.0394287109375,-1.1888427734375,0.05343511450381679,-3.2595419847328246,-0.030534351145038167,0.0023174285888671875
1072,0.137939453125,-0.0406494140625,-1.1912841796875,-0.06870229007633588,-3.4122137404580153,0.09923664122137404,0.0023186206817626953
1054,0.141357421875,-0.0394287109375,-1.1861572265625,-0.007633587786259542,-3.427480916030534,0.0,0.0023179054260253906
1032,0.139404296875,-0.0367431640625,-1.1849365234375,0.03816793893129771,-3.519083969465649,0.22137404580152673,0.0023169517517089844
1123,0.149658203125,-0.0384521484375,-1.1915283203125,-0.04580152671755725,-3.549618320610687,0.061068702290076333,0.0023179054260253906
1162,0.14013671875,-0.0350341796875,-1.1800537109375,0.08396946564885496,-3.3587786259541983,-0.03816793893129771,0.0023186206817626953
1137,0.13623046875,-0.0338134765625,-1.1785888671875,-0.015267175572519083,-3.2290076335877864,0.1450381679389313,0.0023183822631835938
1112,0.141357421875,-0.0372314453125,-1.1910400390625,0.03816793893129771,-3.4122137404580153,0.1297709923664122,0.0023186206817626953
1096,0.1435546875,-0.0411376953125,-1.1922607421875,-0.015267175572519083,-3.2900763358778624,0.09923664122137404,0.002318143844604492
1082,0.143310546875,-0.0382080078125,-1.1993408203125,0.061068702290076333,-3.435114503816794,0.015267175572519083,0.002317667007446289
1066,0.143798828125,-0.0443115234375,-1.1907958984375,-0.061068702290076333,-3.2748091603053435,-0.06870229007633588,0.0023560523986816406
1045,0.14599609375,-0.0399169921875,-1.1900634765625,0.061068702290076333,-3.404580152671756,0.0916030534351145,0.002332925796508789
1023,0.146728515625,-0.0399169921875,-1.1903076171875,0.022900763358778626,-3.5343511450381677,0.19083969465648856,0.002317667007446289
1165,0.142822265625,-0.0396728515625,-1.1990966796875,-0.16030534351145037,-3.4427480916030535,0.06870229007633588,0.002318859100341797
1152,0.143310546875,-0.0343017578125,-1.1868896484375,0.08396946564885496,-3.3893129770992365,-0.030534351145038167,0.0023179054260253906
1127,0.14111328125,-0.0372314453125,-1.1903076171875,0.015267175572519083,-3.5114503816793894,0.007633587786259542,0.002318859100341797
1102,0.144287109375,-0.0362548828125,-1.1834716796875,0.05343511450381679,-3.4656488549618323,-0.19083969465648856,0.0023186206817626953
1089,0.1494140625,-0.0389404296875,-1.1893310546875,0.0,-3.450381679389313,0.16793893129770993,0.002340555191040039
1077,0.142822265625,-0.0421142578125,-1.1939697265625,-0.0916030534351145,-3.480916030534351,-0.030534351145038167,0.0023207664489746094
1062,0.142333984375,-0.0426025390625,-1.1922607421875,0.0,-3.4656488549618323,-0.12213740458015267,0.0023195743560791016
1042,0.1474609375,-0.0379638671875,-1.1917724609375,0.03816793893129771,-3.381679389312977,0.22137404580152673,0.0023174285888671875
1093,0.143798828125,-0.0335693359375,-1.1868896484375,-0.022900763358778626,-3.564885496183206,-0.015267175572519083,0.002318859100341797
1164,0.137939453125,-0.0369873046875,-1.1888427734375,-0.08396946564885496,-3.4885496183206106,0.03816793893129771,0.0023190975189208984
1139,0.14013671875,-0.0333251953125,-1.1949462890625,-0.007633587786259542,-3.5343511450381677,0.16793893129770993,0.0023193359375
1116,0.132568359375,-0.0399169921875,-1.1903076171875,0.022900763358778626,-3.3053435114503817,0.007633587786259542,0.0024802684783935547
1101,0.1455078125,-0.0382080078125,-1.1854248046875,0.0,-3.4580152671755724,0.0,0.002346038818359375
1087,0.1416015625,-0.0411376953125,-1.1876220703125,-0.04580152671755725,-3.6106870229007635,0.0916030534351145,0.0023202896118164062
1072,0.142333984375,-0.0379638671875,-1.1898193359375,-0.04580152671755725,-3.381679389312977,0.13740458015267176,0.002318859100341797
1049,0.1435546875,-0.0364990234375,-1.2000732421875,-0.1450381679389313,-3.480916030534351,0.183206106870229,0.0023183822631835938
1027,0.141357421875,-0.0391845703125,-1.1893310546875,0.015267175572519083,-3.404580152671756,-0.2366412213740458,0.0023179054260253906
1135,0.134521484375,-0.0364990234375,-1.1890869140625,-0.0916030534351145,-3.564885496183206,0.13740458015267176,0.0023186206817626953
1138,0.140869140625,-0.0347900390625,-1.1917724609375,0.06870229007633588,-3.5877862595419847,-0.0916030534351145,0.002317190170288086
1113,0.1416015625,-0.0374755859375,-1.1839599609375,0.06870229007633588,-3.435114503816794,-0.007633587786259542,0.002318859100341797
1089,0.142822265625,-0.0350341796875,-1.1973876953125,0.08396946564885496,-3.633587786259542,-0.16793893129770993,0.002318143844604492
1075,0.14013671875,-0.0369873046875,-1.1956787109375,-0.16793893129770993,-3.404580152671756,0.06870229007633588,0.0023179054260253906
1060,0.136962890625,-0.0418701171875,-1.2017822265625,-0.11450381679389313,-3.5343511450381677,-0.022900763358778626,0.002318859100341797
1048,0.140380859375,-0.0345458984375,-1.1920166015625,-0.08396946564885496,-3.4885496183206106,-0.007633587786259542,0.0023179054260253906
1029,0.136474609375,-0.0299072265625,-1.1864013671875,-0.07633587786259542,-3.5343511450381677,0.06870229007633588,0.002318859100341797
1040,0.136474609375,-0.0396728515625,-1.1881103515625,-0.0916030534351145,-3.3587786259541983,0.10687022900763359,0.002317190170288086
1142,0.14111328125,-0.0379638671875,-1.1868896484375,0.030534351145038167,-3.3206106870229006,-0.0916030534351145,0.0023179054260253906
1117,0.134521484375,-0.0362548828125,-1.1910400390625,-0.16030534351145037,-3.572519083969466,0.05343511450381679,0.002317667007446289
1094,0.145751953125,-0.0401611328125,-1.1832275390625,-0.007633587786259542,-3.5343511450381677,0.07633587786259542,0.0023193359375
1077,0.137451171875,-0.0396728515625,-1.1944580078125,-0.061068702290076333,-3.2900763358778624,0.03816793893129771,0.0023260116577148438
1063,0.139404296875,-0.0284423828125,-1.1856689453125,-0.11450381679389313,-3.4656488549618323,0.05343511450381679,0.002321481704711914
1051,0.139404296875,-0.0447998046875,-1.1885986328125,-0.13740458015267176,-3.4580152671755724,0.0,0.0023186206817626953
1035,0.13720703125,-0.0389404296875,-1.1890869140625,0.022900763358778626,-3.5877862595419847,0.16793893129770993,0.0023164749145507812
1011,0.142333984375,-0.0386962890625,-1.1944580078125,-0.10687022900763359,-3.6106870229007635,0.05343511450381679,0.0023193359375
1090,0.140380859375,-0.0374755859375,-1.1973876953125,-0.1297709923664122,-3.6259541984732824,0.06870229007633588,0.002318143844604492
1131,0.137939453125,-0.0369873046875,-1.1903076171875,0.022900763358778626,-3.2290076335877864,0.015267175572519083,0.0023169517517089844
1105,0.145751953125,-0.0335693359375,-1.1968994140625,-0.061068702290076333,-3.564885496183206,0.06870229007633588,0.0023186206817626953
1081,0.145751953125,-0.0352783203125,-1.1932373046875,0.0,-3.404580152671756,0.09923664122137404,0.0023179054260253906
1065,0.140380859375,-0.0364990234375,-1.1917724609375,0.09923664122137404,-3.4580152671755724,-0.015267175572519083,0.002315521240234375
1053,0.1435546875,-0.0401611328125,-1.1903076171875,-0.11450381679389313,-3.381679389312977,0.22137404580152673,0.0023179054260253906
1041,0.134765625,-0.0377197265625,-1.1898193359375,-0.030534351145038167,-3.3282442748091605,-0.07633587786259542,0.0023179054260253906
1022,0.137451171875,-0.0352783203125,-1.1832275390625,-0.11450381679389313,-3.3435114503816794,0.007633587786259542,0.0024271011352539062
1005,0.140380859375,-0.0340576171875,-1.1881103515625,0.015267175572519083,-3.4656488549618323,0.030534351145038167,0.0023276805877685547
1158,0.1455078125,-0.0389404296875,-1.1873779296875,0.0916030534351145,-3.2595419847328246,0.183206106870229,0.002319812774658203
1138,0.13818359375,-0.0382080078125,-1.1920166015625,0.12213740458015267,-3.4656488549618323,0.022900763358778626,0.002317667007446289
1112,0.135009765625,-0.0374755859375,-1.1883544921875,0.1984732824427481,-3.435114503816794,-0.17557251908396945,0.002318143844604492
1093,0.142578125,-0.0382080078125,-1.1866455078125,0.1984732824427481,-3.2213740458015265,0.03816793893129771,0.0023419857025146484
1076,0.1455078125,-0.0377197265625,-1.1995849609375,-0.0916030534351145,-3.312977099236641,0.4198473282442748,0.0023202896118164062
1063,0.142578125,-0.0428466796875,-1.2005615234375,0.030534351145038167,-3.3435114503816794,0.21374045801526717,0.002318859100341797
1044,0.138427734375,-0.0413818359375,-1.1859130859375,0.13740458015267176,-3.3893129770992365,-0.16030534351145037,0.0023169517517089844
1022,0.1455078125,-0.0428466796875,-1.1961669921875,0.2900763358778626,-3.267175572519084,0.2595419847328244,0.0023183822631835938
1087,0.140869140625,-0.0386962890625,-1.1927490234375,0.2900763358778626,-3.145038167938931,0.09923664122137404,0.002317190170288086
1163,0.140625,-0.0406494140625,-1.1942138671875,0.2824427480916031,-3.2748091603053435,-0.16030534351145037,0.0023174285888671875
1139,0.150390625,-0.0452880859375,-1.2010498046875,0.4732824427480916,-3.1755725190839694,0.061068702290076333,0.002318143844604492
1114,0.135009765625,-0.0443115234375,-1.1539306640625,-0.6183206106870229,-3.312977099236641,0.0916030534351145,0.0023169517517089844
1096,0.144775390625,-0.0377197265625,-1.1925048828125,0.366412213740458,-3.854961832061069,-0.3282442748091603,0.0023200511932373047
1083,0.134765625,-0.0384521484375,-1.2120361328125,-0.16793893129770993,-2.969465648854962,0.022900763358778626,0.0023179054260253906
1069,0.149658203125,-0.0333251953125,-1.1873779296875,0.7709923664122137,-3.0381679389312977,0.007633587786259542,0.002318143844604492
1047,0.146484375,-0.0452880859375,-1.1944580078125,0.12213740458015267,-3.183206106870229,0.08396946564885496,0.0023164749145507812
1025,0.137939453125,-0.0396728515625,-1.1968994140625,0.1450381679389313,-3.50381679389313,-0.061068702290076333,0.0023169517517089844
1121,0.138671875,-0.0386962890625,-1.1851806640625,-0.25190839694656486,-3.763358778625954,0.1450381679389313,0.002318859100341797
1136,0.134765625,-0.0335693359375,-1.1885986328125,0.11450381679389313,-3.49618320610687,0.183206106870229,0.002317667007446289
1111,0.1337890625,-0.0430908203125,-1.1929931640625,0.1297709923664122,-2.9236641221374047,0.05343511450381679,0.0023169517517089844
1087,0.135009765625,-0.0372314453125,-1.1868896484375,0.35877862595419846,-3.381679389312977,0.11450381679389313,0.0023164749145507812
1074,0.1376953125,-0.0360107421875,-1.1820068359375,0.2595419847328244,-3.49618320610687,0.12213740458015267,0.0023186206817626953
1061,0.146240234375,-0.0372314453125,-1.2000732421875,-0.04580152671755725,-3.4885496183206106,-0.04580152671755725,0.0023179054260253906
1049,0.14208984375,-0.0416259765625,-1.1910400390625,0.19083969465648856,-3.312977099236641,0.16793893129770993,0.002382516860961914
1025,0.143310546875,-0.0335693359375,-1.1937255859375,-0.06870229007633588,-3.49618320610687,0.16030534351145037,0.0023310184478759766
1040,0.14013671875,-0.0357666015625,-1.1917724609375,0.022900763358778626,-3.351145038167939,-0.05343511450381679,0.002317667007446289
1151,0.140380859375,-0.0362548828125,-1.1944580078125,0.030534351145038167,-3.312977099236641,0.04580152671755725,0.002318143844604492
