emg_0,emg_1,emg_2,emg_3,emg_4,acc_x,acc_y,acc_z,gyro_x,gyro_y,gyro_z,dt
85,-0.04213683102801224,0.2693029311599099,-0.21374045801526717,-3.6946564885496183,0.301025390625,-0.0460205078125,-1.1231689453125,-0.05343511450381679,-3.648854961832061,-0.04580152671755725,0.20258498191833496
85,-0.04169979952394449,0.26794835541270245,-0.07633587786259542,-3.5267175572519083,0.304443359375,-0.0484619140625,-1.1224365234375,-0.16793893129770993,-3.7480916030534353,-0.09923664122137404,0.004285573959350586
85,-0.03715403787976044,0.2663832193061197,-0.05343511450381679,-3.2213740458015265,0.30615234375,-0.0450439453125,-1.1278076171875,-0.25190839694656486,-3.3893129770992365,0.007633587786259542,0.004138469696044922
85,-0.03968873206766076,0.26242891691119885,-0.04580152671755725,-3.6717557251908395,0.310791015625,-0.0447998046875,-1.1278076171875,-0.10687022900763359,-3.564885496183206,-0.030534351145038167,0.004170894622802734
85,-0.03742131227179344,0.2648688206382023,-0.16030534351145037,-3.7786259541984735,0.306884765625,-0.0430908203125,-1.1168212890625,0.007633587786259542,-3.687022900763359,-0.20610687022900764,0.0041637420654296875
85,-0.03899218767325324,0.26275497617980687,-0.16793893129770993,-3.564885496183206,0.3076171875,-0.0430908203125,-1.1285400390625,-0.06870229007633588,-3.6030534351145036,0.0,0.004116058349609375
86,-0.03884913027306303,0.2682773193047141,-0.2366412213740458,-3.6946564885496183,0.3095703125,-0.0445556640625,-1.1273193359375,-0.08396946564885496,-3.564885496183206,-0.06870229007633588,0.004117250442504883
85,-0.037506133096647465,0.2631178486400817,-0.19083969465648856,-3.6412213740458017,0.304443359375,-0.0472412109375,-1.1231689453125,-0.16793893129770993,-3.4885496183206106,-0.015267175572519083,0.004233837127685547
85,-0.037355094494244276,0.26720861704027105,-0.2900763358778626,-3.8396946564885495,0.306884765625,-0.0465087890625,-1.1265869140625,-0.07633587786259542,-3.7099236641221376,-0.03816793893129771,0.003938913345336914
85,-0.04199815977953163,0.26565523008568903,-0.183206106870229,-3.7251908396946565,0.306884765625,-0.0440673828125,-1.1326904296875,-0.16793893129770993,-3.732824427480916,-0.22900763358778625,0.004026174545288086
85,-0.040161979947023654,0.26539775056019127,-0.16793893129770993,-3.7709923664122136,0.314208984375,-0.0447998046875,-1.1214599609375,-0.08396946564885496,-3.50381679389313,-0.04580152671755725,0.0042095184326171875
86,-0.03820679348739348,0.2673104031317889,-0.19083969465648856,-3.7099236641221376,0.3046875,-0.0506591796875,-1.1314697265625,-0.20610687022900764,-3.5267175572519083,-0.07633587786259542,0.004210710525512695
86,-0.041667756186816174,0.27228717038043226,-0.1297709923664122,-3.50381679389313,0.302978515625,-0.0416259765625,-1.1253662109375,-0.183206106870229,-3.50381679389313,-0.007633587786259542,0.004282951354980469
85,-0.03688883048025401,0.26404153298020067,-0.2366412213740458,-3.7251908396946565,0.305908203125,-0.0469970703125,-1.1224365234375,-0.07633587786259542,-3.6564885496183206,-0.11450381679389313,0.004377126693725586
86,-0.039166273276873796,0.26583227959821915,0.0,-3.7251908396946565,0.313720703125,-0.0438232421875,-1.1146240234375,-0.04580152671755725,-3.572519083969466,0.015267175572519083,0.004200458526611328
86,-0.03666441724455,0.2695583384859377,-0.2366412213740458,-3.6259541984732824,0.30712890625,-0.0399169921875,-1.1224365234375,-0.16793893129770993,-3.763358778625954,-0.04580152671755725,0.004060268402099609
86,-0.037646153537019944,0.2695435452968186,-0.015267175572519083,-3.480916030534351,0.30712890625,-0.0421142578125,-1.1273193359375,-0.04580152671755725,-3.6717557251908395,0.04580152671755725,0.0041353702545166016
86,-0.03942319360710027,0.2641321317259529,-0.007633587786259542,-3.7557251908396947,0.306884765625,-0.0460205078125,-1.1207275390625,-0.0916030534351145,-3.6564885496183206,-0.1984732824427481,0.0042073726654052734
86,-0.03570333841666999,0.269026283233708,-0.16793893129770993,-3.6564885496183206,0.314453125,-0.0399169921875,-1.1226806640625,-0.16793893129770993,-3.801526717557252,0.022900763358778626,0.003984212875366211
87,-0.037807909930275274,0.26463381232483374,-0.11450381679389313,-3.572519083969466,0.307373046875,-0.0406494140625,-1.1231689453125,0.0,-3.549618320610687,0.007633587786259542,0.004157543182373047
87,-0.03830348241097883,0.26693966343072323,-0.2900763358778626,-3.66412213740458,0.30322265625,-0.0406494140625,-1.1326904296875,-0.08396946564885496,-3.7022900763358777,0.22137404580152673,0.00392460823059082
88,-0.04292090150689044,0.271033566910545,-0.26717557251908397,-3.7251908396946565,0.3037109375,-0.0418701171875,-1.1173095703125,-0.11450381679389313,-3.4732824427480917,-0.1297709923664122,0.00390934944152832
90,-0.039611172289178716,0.2664504863505123,-0.07633587786259542,-3.5801526717557253,0.304443359375,-0.0426025390625,-1.1214599609375,-0.10687022900763359,-3.572519083969466,0.16030534351145037,0.003907680511474609
90,-0.03538297382637292,0.2668454670506871,-0.05343511450381679,-3.7557251908396947,0.309326171875,-0.0440673828125,-1.1270751953125,-0.0916030534351145,-3.717557251908397,-0.06870229007633588,0.0039103031158447266
91,-0.03803045392691411,0.264943350159991,-0.1984732824427481,-3.435114503816794,0.30224609375,-0.0440673828125,-1.1204833984375,-0.05343511450381679,-3.3740458015267176,0.061068702290076333,0.003915309906005859
91,-0.038044401178623496,0.2643914368665562,-0.19083969465648856,-3.6717557251908395,0.304443359375,-0.0421142578125,-1.1309814453125,-0.17557251908396945,-3.450381679389313,-0.12213740458015267,0.003946542739868164
93,-0.03740219061365519,0.2679705228988079,-0.20610687022900764,-3.5877862595419847,0.30810546875,-0.0447998046875,-1.1275634765625,-0.11450381679389313,-3.7099236641221376,-0.0916030534351145,0.003926277160644531
94,-0.04091466373254002,0.26981288765805994,-0.030534351145038167,-3.687022900763359,0.307861328125,-0.0457763671875,-1.1234130859375,-0.15267175572519084,-3.816793893129771,0.1984732824427481,0.00391387939453125
95,-0.036207553668498746,0.260830795082746,-0.05343511450381679,-3.7938931297709924,0.308349609375,-0.0435791015625,-1.1268310546875,-0.09923664122137404,-3.7251908396946565,0.03816793893129771,0.003993988037109375
97,-0.0386671561938302,0.26494888853630694,-0.15267175572519084,-3.6106870229007635,0.310302734375,-0.0469970703125,-1.1195068359375,-0.09923664122137404,-3.6717557251908395,-0.12213740458015267,0.003927707672119141
98,-0.03863216191867253,0.26739067665649857,-0.09923664122137404,-3.572519083969466,0.307861328125,-0.0428466796875,-1.1180419921875,-0.10687022900763359,-3.687022900763359,-0.03816793893129771,0.003914833068847656
99,-0.043165939687449355,0.2675282915284898,-0.3435114503816794,-3.6030534351145036,0.30615234375,-0.0469970703125,-1.1219482421875,-0.09923664122137404,-3.7404580152671754,-0.022900763358778626,0.003913402557373047
100,-0.03889065651258248,0.2657990051037373,-0.2748091603053435,-3.618320610687023,0.30517578125,-0.0489501953125,-1.1309814453125,-0.04580152671755725,-3.6106870229007635,0.007633587786259542,0.003914833068847656
102,-0.03691546193025661,0.26686852917784964,-0.1450381679389313,-3.618320610687023,0.309326171875,-0.0423583984375,-1.1368408203125,-0.07633587786259542,-3.648854961832061,-0.24427480916030533,0.003913402557373047
103,-0.04093038826710488,0.2647966849563817,-0.183206106870229,-3.564885496183206,0.30908203125,-0.0452880859375,-1.1160888671875,-0.1297709923664122,-3.5419847328244276,0.05343511450381679,0.003938436508178711
104,-0.04081531948268528,0.2676265625066252,-0.16030534351145037,-3.564885496183206,0.3076171875,-0.0411376953125,-1.1290283203125,-0.030534351145038167,-3.3282442748091605,-0.06870229007633588,0.004030942916870117
106,-0.04007258382036686,0.26240956985510083,-0.17557251908396945,-3.763358778625954,0.306884765625,-0.0460205078125,-1.1226806640625,-0.15267175572519084,-3.6106870229007635,0.1450381679389313,0.003926277160644531
107,-0.033798789306878754,0.2618113552370917,-0.03816793893129771,-3.4656488549618323,0.302978515625,-0.0457763671875,-1.1263427734375,-0.183206106870229,-3.595419847328244,-0.13740458015267176,0.0039958953857421875
109,-0.03789377374849847,0.2622394637684524,-0.20610687022900764,-3.6564885496183206,0.312744140625,-0.0440673828125,-1.1226806640625,-0.10687022900763359,-3.687022900763359,0.13740458015267176,0.004082202911376953
110,-0.037796494332783856,0.2669428327881614,-0.17557251908396945,-3.6412213740458017,0.30712890625,-0.0428466796875,-1.1224365234375,-0.09923664122137404,-3.648854961832061,-0.1450381679389313,0.003933906555175781
112,-0.0359843532231508,0.2696722522118216,-0.19083969465648856,-3.7022900763358777,0.308349609375,-0.0445556640625,-1.1226806640625,-0.06870229007633588,-3.564885496183206,-0.06870229007633588,0.003915309906005859
113,-0.03696966669471901,0.2648329961419871,-0.19083969465648856,-3.6030534351145036,0.30322265625,-0.0421142578125,-1.1246337890625,-0.183206106870229,-3.7099236641221376,-0.05343511450381679,0.003914356231689453
114,-0.03454366227207268,0.26445979707206907,-0.17557251908396945,-3.6793893129770994,0.31005859375,-0.0469970703125,-1.1236572265625,0.007633587786259542,-3.6946564885496183,-0.08396946564885496,0.003913402557373047
116,-0.03374848674372387,0.2652578388086604,-0.183206106870229,-3.4732824427480917,0.30517578125,-0.0389404296875,-1.1234130859375,-0.0916030534351145,-3.648854961832061,-0.022900763358778626,0.0039746761322021484
117,-0.036077425617576264,0.2663955050042841,0.04580152671755725,-3.4885496183206106,0.309814453125,-0.0426025390625,-1.1141357421875,-0.015267175572519083,-3.6717557251908395,0.183206106870229,0.003918647766113281
119,-0.03987412902378955,0.2724093886784309,-0.16793893129770993,-3.7251908396946565,0.309326171875,-0.0477294921875,-1.1190185546875,-0.16793893129770993,-3.6793893129770994,-0.19083969465648856,0.003914833068847656
121,-0.041010176853888865,0.27002297132967035,-0.15267175572519084,-3.4580152671755724,0.310302734375,-0.0401611328125,-1.1226806640625,-0.21374045801526717,-3.6717557251908395,0.04580152671755725,0.003913164138793945
122,-0.03632830940439348,0.26453910157446453,-0.2900763358778626,-3.519083969465649,0.303466796875,-0.0450439453125,-1.1202392578125,-0.366412213740458,-3.6946564885496183,0.015267175572519083,0.003923177719116211
123,-0.03859517247742649,0.2661872647726282,-0.1450381679389313,-3.801526717557252,0.31103515625,-0.0487060546875,-1.1260986328125,-0.022900763358778626,-3.5877862595419847,-0.0916030534351145,0.003913164138793945
124,-0.03820827805557759,0.2718812707295233,-0.022900763358778626,-3.4656488549618323,0.302978515625,-0.0472412109375,-1.1202392578125,-0.15267175572519084,-3.6412213740458017,0.0,0.003912210464477539
125,-0.040749042472498116,0.26272846214362144,-0.07633587786259542,-3.6717557251908395,0.309326171875,-0.0428466796875,-1.1314697265625,0.007633587786259542,-3.5877862595419847,0.061068702290076333,0.003911256790161133
126,-0.034725531627560646,0.26563958780172003,-0.1297709923664122,-3.7938931297709924,0.303466796875,-0.0521240234375,-1.1309814453125,-0.16793893129770993,-3.763358778625954,-0.17557251908396945,0.003911733627319336
127,-0.043826729612076044,0.26383515318631345,-0.07633587786259542,-3.717557251908397,0.30859375,-0.0477294921875,-1.1256103515625,-0.2748091603053435,-3.6793893129770994,-0.022900763358778626,0.003914356231689453
129,-0.040211649218436375,0.26323854951065434,-0.06870229007633588,-3.2900763358778624,0.306640625,-0.0428466796875,-1.1241455078125,-0.061068702290076333,-3.564885496183206,0.0,0.003911733627319336
131,-0.03674075728141513,0.2677015602814875,-0.1297709923664122,-3.4427480916030535,0.315673828125,-0.0438232421875,-1.1141357421875,0.022900763358778626,-3.687022900763359,-0.09923664122137404,0.003910064697265625
131,-0.037423242082657654,0.26272495158926795,-0.16793893129770993,-3.5801526717557253,0.306396484375,-0.0421142578125,-1.1239013671875,-0.2595419847328244,-3.6412213740458017,-0.12213740458015267,0.003911495208740234
133,-0.040375396602639106,0.2632724221835686,-0.22137404580152673,-3.8625954198473282,0.308837890625,-0.0435791015625,-1.1275634765625,-0.05343511450381679,-3.648854961832061,0.015267175572519083,0.003911733627319336
134,-0.03783294115537227,0.26698497702626917,-0.1450381679389313,-3.6030534351145036,0.30517578125,-0.0445556640625,-1.1217041015625,-0.06870229007633588,-3.633587786259542,-0.17557251908396945,0.0039119720458984375
135,-0.03774178164986569,0.270228734434943,-0.1984732824427481,-3.8244274809160306,0.313720703125,-0.0447998046875,-1.1192626953125,-0.17557251908396945,-3.7022900763358777,-0.061068702290076333,0.003911495208740234
136,-0.03419410921337909,0.265093190706168,-0.11450381679389313,-3.66412213740458,0.30859375,-0.0443115234375,-1.1236572265625,-0.22900763358778625,-3.801526717557252,-0.022900763358778626,0.003911018371582031
137,-0.04536706378845496,0.269247405640361,-0.09923664122137404,-3.6412213740458017,0.302978515625,-0.0487060546875,-1.1297607421875,-0.06870229007633588,-3.6946564885496183,-0.24427480916030533,0.003912687301635742
138,-0.03892906997853834,0.2669330538724699,-0.0916030534351145,-3.8396946564885495,0.3037109375,-0.0445556640625,-1.1182861328125,-0.11450381679389313,-3.5343511450381677,0.16030534351145037,0.003912925720214844
139,-0.036466416907463446,0.2629282513311103,-0.26717557251908397,-3.7251908396946565,0.309326171875,-0.0404052734375,-1.1182861328125,-0.04580152671755725,-3.648854961832061,0.061068702290076333,0.00392603874206543
140,-0.03743335055379743,0.264304979966883,-0.29770992366412213,-3.7099236641221376,0.3076171875,-0.0489501953125,-1.1241455078125,-0.07633587786259542,-3.5572519083969465,-0.007633587786259542,0.003911495208740234
142,-0.030301204118831755,0.2699608026985604,-0.21374045801526717,-3.5877862595419847,0.306396484375,-0.0406494140625,-1.1273193359375,-0.19083969465648856,-3.6793893129770994,0.13740458015267176,0.003943681716918945
143,-0.035604428832149294,0.269658877861862,-0.15267175572519084,-3.5877862595419847,0.306396484375,-0.0467529296875,-1.1204833984375,-0.10687022900763359,-3.717557251908397,-0.07633587786259542,0.003919124603271484
144,-0.03698235761213695,0.2642926689370771,-0.15267175572519084,-3.7938931297709924,0.307861328125,-0.0416259765625,-1.1270751953125,-0.16793893129770993,-3.816793893129771,-0.10687022900763359,0.003913402557373047
145,-0.03574370831953975,0.26881225506633283,-0.07633587786259542,-3.519083969465649,0.30810546875,-0.0433349609375,-1.1239013671875,-0.13740458015267176,-3.786259541984733,0.030534351145038167,0.003912210464477539
145,-0.037095517737899306,0.26900549600100615,-0.183206106870229,-3.50381679389313,0.313720703125,-0.0440673828125,-1.1248779296875,-0.16030534351145037,-3.4198473282442747,-0.17557251908396945,0.003912925720214844
146,-0.035417561638994614,0.27134852955921523,-0.06870229007633588,-3.7480916030534353,0.3017578125,-0.0450439453125,-1.1351318359375,-0.16793893129770993,-3.5419847328244276,-0.09923664122137404,0.003912448883056641
147,-0.03992648670121089,0.2732657495005135,-0.015267175572519083,-3.5801526717557253,0.312255859375,-0.0479736328125,-1.1263427734375,0.07633587786259542,-3.687022900763359,-0.03816793893129771,0.003911733627319336
148,-0.04253418420766454,0.266417701881501,-0.13740458015267176,-3.549618320610687,0.305419921875,-0.0455322265625,-1.1282958984375,-0.07633587786259542,-3.648854961832061,-0.0916030534351145,0.003916025161743164
148,-0.040222813536896766,0.2646116609136164,-0.03816793893129771,-3.6106870229007635,0.3046875,-0.0467529296875,-1.1290283203125,-0.09923664122137404,-3.7709923664122136,-0.06870229007633588,0.00391387939453125
150,-0.03962378946499698,0.2631656731655988,-0.09923664122137404,-3.6259541984732824,0.300537109375,-0.0477294921875,-1.1275634765625,-0.08396946564885496,-3.6412213740458017,0.05343511450381679,0.003912210464477539
150,-0.037063699990067304,0.26422472577230505,0.0,-3.5572519083969465,0.304443359375,-0.0511474609375,-1.1253662109375,-0.1297709923664122,-3.7251908396946565,0.007633587786259542,0.003911256790161133
151,-0.04030872819387987,0.27105176888051,0.0,-3.6793893129770994,0.3056640625,-0.0467529296875,-1.1270751953125,-0.16793893129770993,-3.7022900763358777,-0.05343511450381679,0.003911256790161133
151,-0.035555731058833265,0.2595609224663973,-0.13740458015267176,-3.717557251908397,0.300537109375,-0.0423583984375,-1.1251220703125,-0.015267175572519083,-3.6564885496183206,-0.09923664122137404,0.0039103031158447266
152,-0.03668734270280858,0.2688637701216991,-0.15267175572519084,-3.7099236641221376,0.3076171875,-0.0443115234375,-1.1217041015625,-0.04580152671755725,-3.6946564885496183,-0.03816793893129771,0.0040361881256103516
152,-0.0360044427740761,0.26525614741735337,-0.21374045801526717,-3.633587786259542,0.3134765625,-0.0404052734375,-1.1129150390625,-0.15267175572519084,-3.6717557251908395,-0.1450381679389313,0.003923654556274414
153,-0.035787579788056224,0.2715159608581442,-0.15267175572519084,-3.7557251908396947,0.306640625,-0.0457763671875,-1.1322021484375,-0.2824427480916031,-3.7022900763358777,0.061068702290076333,0.003915071487426758
153,-0.040034601112406296,0.264319705589855,-0.10687022900763359,-3.633587786259542,0.3037109375,-0.0413818359375,-1.1253662109375,-0.15267175572519084,-3.4656488549618323,-0.11450381679389313,0.003912925720214844
153,-0.03464349256951247,0.27358633800271404,-0.17557251908396945,-3.6259541984732824,0.3046875,-0.0411376953125,-1.1229248046875,-0.16793893129770993,-3.618320610687023,0.0,0.003913164138793945
154,-0.03917351179888395,0.2662546124221172,-0.08396946564885496,-3.877862595419847,0.306884765625,-0.0504150390625,-1.1278076171875,-0.022900763358778626,-3.66412213740458,-0.2595419847328244,0.003910064697265625
154,-0.04109755127035527,0.2642155568917951,-0.1297709923664122,-3.5877862595419847,0.304443359375,-0.0433349609375,-1.1307373046875,-0.15267175572519084,-3.66412213740458,-0.09923664122137404,0.003931522369384766
155,-0.04066855047816142,0.26761230986576007,-0.07633587786259542,-3.687022900763359,0.3037109375,-0.0443115234375,-1.1251220703125,0.015267175572519083,-3.5267175572519083,-0.16793893129770993,0.003914356231689453
155,-0.04135918076416323,0.267726876149917,-0.08396946564885496,-3.732824427480916,0.3095703125,-0.0421142578125,-1.1258544921875,-0.030534351145038167,-3.5572519083969465,-0.1984732824427481,0.0039136409759521484
155,-0.040119153198265596,0.26771330053765674,-0.10687022900763359,-3.6106870229007635,0.307373046875,-0.0411376953125,-1.1212158203125,-0.2824427480916031,-3.4885496183206106,0.0,0.003912448883056641
156,-0.03643040491369482,0.26456950330078227,-0.061068702290076333,-3.480916030534351,0.308837890625,-0.0396728515625,-1.1280517578125,-0.16793893129770993,-3.549618320610687,0.007633587786259542,0.003911018371582031
156,-0.03658746707802749,0.2685464095844108,-0.11450381679389313,-3.7022900763358777,0.305419921875,-0.0504150390625,-1.1241455078125,-0.1450381679389313,-3.595419847328244,0.0,0.003935337066650391
156,-0.04011769883055855,0.26466422828533165,-0.0916030534351145,-3.6030534351145036,0.308349609375,-0.0467529296875,-1.1180419921875,-0.015267175572519083,-3.7557251908396947,0.05343511450381679,0.0039217472076416016
156,-0.032653324059506085,0.2646796393749327,-0.19083969465648856,-3.572519083969466,0.30224609375,-0.0477294921875,-1.1270751953125,-0.05343511450381679,-3.7480916030534353,0.022900763358778626,0.003912687301635742
156,-0.0436906030391602,0.2727616846743742,-0.19083969465648856,-3.6030534351145036,0.31298828125,-0.0450439453125,-1.1263427734375,-0.16030534351145037,-3.6106870229007635,0.05343511450381679,0.003913164138793945
157,-0.03488179135928383,0.2666464305242723,-0.25190839694656486,-3.732824427480916,0.30712890625,-0.0474853515625,-1.1229248046875,-0.061068702290076333,-3.732824427480916,-0.16793893129770993,0.003914833068847656
156,-0.037021702157421454,0.2675922182784605,-0.13740458015267176,-3.549618320610687,0.30810546875,-0.0443115234375,-1.1219482421875,-0.15267175572519084,-3.6259541984732824,0.007633587786259542,0.0040035247802734375
157,-0.0421668187968163,0.26761500159920043,-0.030534351145038167,-3.6259541984732824,0.302978515625,-0.0408935546875,-1.1239013671875,-0.25190839694656486,-3.6793893129770994,0.03816793893129771,0.0039288997650146484
156,-0.038938297775066445,0.26764709833787365,-0.1450381679389313,-3.5343511450381677,0.30615234375,-0.0477294921875,-1.1177978515625,-0.12213740458015267,-3.450381679389313,-0.11450381679389313,0.003922939300537109
157,-0.03813403701218606,0.26635607459981253,-0.0916030534351145,-4.0,0.3076171875,-0.0438232421875,-1.1256103515625,-0.1984732824427481,-3.6030534351145036,0.07633587786259542,0.003912687301635742
157,-0.038354731652074564,0.26600566026380923,0.022900763358778626,-3.687022900763359,0.306396484375,-0.0389404296875,-1.1241455078125,-0.10687022900763359,-3.5419847328244276,-0.03816793893129771,0.005095720291137695
156,-0.04111042991807235,0.26625091143205304,-0.12213740458015267,-3.6106870229007635,0.307373046875,-0.0457763671875,-1.1224365234375,0.007633587786259542,-3.7786259541984735,0.05343511450381679,0.004813671112060547
157,-0.03929146250847511,0.2660507481768956,-0.3435114503816794,-3.595419847328244,0.306884765625,-0.0428466796875,-1.1270751953125,-0.0916030534351145,-3.763358778625954,0.015267175572519083,0.003922700881958008
156,-0.04240918436784155,0.26869677411141524,-0.21374045801526717,-3.66412213740458,0.31005859375,-0.0418701171875,-1.1312255859375,-0.2366412213740458,-3.7709923664122136,-0.03816793893129771,0.003916740417480469
156,-0.03365380308715046,0.273847389504834,-0.1450381679389313,-3.5419847328244276,0.30712890625,-0.0447998046875,-1.1307373046875,-0.13740458015267176,-3.7786259541984735,0.0,0.003916025161743164
156,-0.038996873943851325,0.26610887259003846,-0.21374045801526717,-3.8931297709923665,0.307373046875,-0.0426025390625,-1.1212158203125,-0.22900763358778625,-3.732824427480916,-0.20610687022900764,0.003915309906005859
156,-0.03793949111593872,0.2686267218274477,-0.1984732824427481,-3.5877862595419847,0.305908203125,-0.0428466796875,-1.1163330078125,-0.17557251908396945,-3.5801526717557253,0.10687022900763359,0.003916740417480469
156,-0.03832841013472541,0.26839958140137615,-0.3435114503816794,-3.549618320610687,0.308349609375,-0.0482177734375,-1.1209716796875,-0.0916030534351145,-3.9083969465648853,-0.007633587786259542,0.003913402557373047
156,-0.03803632572258304,0.2630669712580066,-0.022900763358778626,-3.687022900763359,0.302001953125,-0.0404052734375,-1.1319580078125,-0.183206106870229,-3.7786259541984735,-0.10687022900763359,0.003914356231689453
155,-0.03952044740485506,0.26928474989700585,-0.05343511450381679,-3.687022900763359,0.3115234375,-0.0389404296875,-1.1304931640625,-0.07633587786259542,-3.5801526717557253,0.1297709923664122,0.004021406173706055
155,-0.03939004058548538,0.26441903138564626,0.007633587786259542,-3.687022900763359,0.30615234375,-0.0467529296875,-1.1273193359375,-0.04580152671755725,-3.7022900763358777,-0.11450381679389313,0.00405573844909668
155,-0.041882971581065846,0.27016113707469086,-0.1450381679389313,-3.5801526717557253,0.3046875,-0.0455322265625,-1.1246337890625,-0.15267175572519084,-3.5114503816793894,0.0,0.003919363021850586
154,-0.035435549697664014,0.2647701735999859,-0.08396946564885496,-3.6946564885496183,0.303466796875,-0.0396728515625,-1.1226806640625,-0.07633587786259542,-3.633587786259542,0.015267175572519083,0.0039141178131103516
154,-0.03601665700969428,0.26701801517344637,-0.22900763358778625,-3.5267175572519083,0.311279296875,-0.0418701171875,-1.1217041015625,-0.1450381679389313,-3.5267175572519083,0.0,0.00391387939453125
154,-0.038699666735368975,0.2650087584755842,-0.1297709923664122,-3.564885496183206,0.30810546875,-0.0443115234375,-1.1270751953125,-0.04580152671755725,-3.519083969465649,0.09923664122137404,0.00391387939453125
154,-0.04157808962934633,0.27123061226639705,0.007633587786259542,-3.572519083969466,0.3154296875,-0.0462646484375,-1.1312255859375,-0.061068702290076333,-3.7251908396946565,-0.12213740458015267,0.003914356231689453
153,-0.04080177024592602,0.26883387823288196,-0.13740458015267176,-3.5343511450381677,0.3056640625,-0.0511474609375,-1.1253662109375,-0.10687022900763359,-3.480916030534351,-0.16793893129770993,0.003930568695068359
154,-0.041744976536857596,0.2664434329524836,-0.20610687022900764,-3.687022900763359,0.304443359375,-0.0452880859375,-1.1256103515625,-0.24427480916030533,-3.6793893129770994,-0.03816793893129771,0.0039293766021728516
153,-0.043852667037641825,0.26485583861417517,0.007633587786259542,-3.404580152671756,0.307861328125,-0.0462646484375,-1.1270751953125,-0.16793893129770993,-3.549618320610687,0.17557251908396945,0.00396418571472168
152,-0.04078893128742483,0.264728951377511,-0.12213740458015267,-3.732824427480916,0.3076171875,-0.0472412109375,-1.1265869140625,-0.03816793893129771,-3.480916030534351,-0.007633587786259542,0.004068851470947266
152,-0.039783019573400066,0.2684314700635375,-0.183206106870229,-3.7404580152671754,0.30517578125,-0.0452880859375,-1.1209716796875,-0.11450381679389313,-3.7251908396946565,-0.015267175572519083,0.0039293766021728516
151,-0.042039504430588966,0.2645053734197022,-0.09923664122137404,-3.816793893129771,0.306640625,-0.0457763671875,-1.1156005859375,-0.03816793893129771,-3.7404580152671754,0.08396946564885496,0.003915071487426758
150,-0.035800033520963385,0.27183071964518,-0.1297709923664122,-3.7099236641221376,0.314208984375,-0.0428466796875,-1.1346435546875,-0.20610687022900764,-3.6106870229007635,0.007633587786259542,0.003915071487426758
150,-0.04045490143902782,0.2704007403740819,0.04580152671755725,-3.50381679389313,0.30419921875,-0.0411376953125,-1.1273193359375,-0.08396946564885496,-3.7709923664122136,-0.12213740458015267,0.003915071487426758
150,-0.036861822334808746,0.26920784317008406,-0.11450381679389313,-3.6030534351145036,0.305419921875,-0.0460205078125,-1.1317138671875,-0.19083969465648856,-3.6946564885496183,-0.2595419847328244,0.003913164138793945
149,-0.03956900710131728,0.2684772283975544,-0.15267175572519084,-3.7099236641221376,0.310302734375,-0.0411376953125,-1.1280517578125,-0.13740458015267176,-3.564885496183206,0.03816793893129771,0.0039136409759521484
149,-0.03319930033624906,0.2722251833979992,-0.05343511450381679,-3.7022900763358777,0.311279296875,-0.0421142578125,-1.1265869140625,-0.1984732824427481,-3.5877862595419847,-0.05343511450381679,0.003913402557373047
148,-0.03715518725023562,0.26941289227032167,-0.09923664122137404,-3.732824427480916,0.312255859375,-0.0438232421875,-1.1256103515625,-0.12213740458015267,-3.648854961832061,-0.03816793893129771,0.003912925720214844
148,-0.037449146580697965,0.2683326605203891,-0.24427480916030533,-3.8091603053435112,0.3076171875,-0.0450439453125,-1.1214599609375,-0.20610687022900764,-3.8091603053435112,0.015267175572519083,0.003914356231689453
147,-0.037953912720660614,0.26786998190034006,-0.07633587786259542,-3.5572519083969465,0.3134765625,-0.0440673828125,-1.1270751953125,-0.1297709923664122,-3.648854961832061,0.015267175572519083,0.003915548324584961
146,-0.04260674520983716,0.2673170138378636,-0.21374045801526717,-3.648854961832061,0.30908203125,-0.0457763671875,-1.1265869140625,-0.0916030534351145,-3.5114503816793894,-0.04580152671755725,0.003915309906005859
146,-0.038436007214432626,0.2613766168651725,-0.1450381679389313,-3.4122137404580153,0.303955078125,-0.0452880859375,-1.1246337890625,-0.10687022900763359,-3.648854961832061,-0.10687022900763359,0.003914356231689453
146,-0.03814398217494125,0.26597075406376824,-0.061068702290076333,-3.4885496183206106,0.30615234375,-0.0469970703125,-1.1202392578125,-0.16793893129770993,-3.687022900763359,-0.1450381679389313,0.0039327144622802734
145,-0.039516024197113246,0.2670224935930692,-0.03816793893129771,-3.6793893129770994,0.31298828125,-0.0511474609375,-1.1363525390625,0.03816793893129771,-3.9923664122137406,0.13740458015267176,0.003912687301635742
144,-0.04506050421693487,0.2654344484812497,-0.2748091603053435,-3.404580152671756,0.312255859375,-0.0445556640625,-1.1239013671875,-0.24427480916030533,-3.4885496183206106,-0.061068702290076333,0.003957271575927734
144,-0.03475033139264898,0.2663911836427933,0.04580152671755725,-3.6717557251908395,0.30908203125,-0.0479736328125,-1.1309814453125,0.0,-3.5343511450381677,0.0,0.003914356231689453
143,-0.03957913431631824,0.26861137067714747,-0.13740458015267176,-3.549618320610687,0.30810546875,-0.0374755859375,-1.1234130859375,-0.015267175572519083,-3.618320610687023,0.061068702290076333,0.003911256790161133
143,-0.03772490931239244,0.27142964073032827,-0.25190839694656486,-3.648854961832061,0.310791015625,-0.0477294921875,-1.1199951171875,-0.17557251908396945,-3.4198473282442747,-0.17557251908396945,0.003912687301635742
142,-0.03651610178352313,0.2658959328549514,-0.22137404580152673,-3.4656488549618323,0.304443359375,-0.0474853515625,-1.1280517578125,-0.030534351145038167,-3.7709923664122136,0.0916030534351145,0.0039136409759521484
141,-0.035872314165687674,0.2683783221499685,-0.25190839694656486,-3.66412213740458,0.30419921875,-0.0460205078125,-1.1212158203125,-0.13740458015267176,-3.595419847328244,-0.10687022900763359,0.003915309906005859
142,-0.039959203908245575,0.26726926744402546,-0.1450381679389313,-3.816793893129771,0.30859375,-0.0401611328125,-1.1148681640625,-0.2366412213740458,-3.4580152671755724,0.03816793893129771,0.003912925720214844
141,-0.03935146100339867,0.2660317175748093,-0.15267175572519084,-3.8244274809160306,0.302490234375,-0.0416259765625,-1.1202392578125,-0.1984732824427481,-3.7480916030534353,0.04580152671755725,0.003912210464477539
140,-0.03829234009923754,0.269446383374047,-0.04580152671755725,-3.4198473282442747,0.3037109375,-0.0352783203125,-1.1229248046875,-0.022900763358778626,-3.564885496183206,0.015267175572519083,0.003925800323486328
140,-0.0408610089197759,0.2678202811582035,-0.09923664122137404,-3.7480916030534353,0.311767578125,-0.0469970703125,-1.1217041015625,-0.16030534351145037,-3.572519083969466,-0.17557251908396945,0.0039157867431640625
140,-0.03897439516496547,0.2676384201204213,0.022900763358778626,-3.7480916030534353,0.310302734375,-0.0465087890625,-1.1265869140625,0.022900763358778626,-3.4885496183206106,0.0916030534351145,0.003915548324584961
138,-0.040455997818575166,0.26477322972614276,-0.19083969465648856,-3.83206106870229,0.30908203125,-0.0443115234375,-1.1224365234375,-0.03816793893129771,-3.648854961832061,-0.366412213740458,0.003913402557373047
138,-0.03883489055128453,0.26405481916354123,-0.22137404580152673,-3.6946564885496183,0.303955078125,-0.0450439453125,-1.1234130859375,-0.0916030534351145,-3.648854961832061,0.12213740458015267,0.003908634185791016
137,-0.03474558215835196,0.27005452540002084,-0.17557251908396945,-3.6793893129770994,0.302978515625,-0.0438232421875,-1.1204833984375,-0.10687022900763359,-3.6412213740458017,0.06870229007633588,0.003913164138793945
136,-0.03781705374246909,0.2593249040500511,-0.06870229007633588,-3.633587786259542,0.309814453125,-0.0474853515625,-1.1236572265625,-0.16030534351145037,-3.7022900763358777,0.022900763358778626,0.0039119720458984375
136,-0.040625680606526035,0.26373525178798285,-0.17557251908396945,-3.5877862595419847,0.30517578125,-0.0455322265625,-1.1256103515625,-0.08396946564885496,-3.717557251908397,-0.15267175572519084,0.003911256790161133
135,-0.03837514460021963,0.2663370332453091,-0.19083969465648856,-3.6717557251908395,0.31201171875,-0.0457763671875,-1.1207275390625,-0.09923664122137404,-3.66412213740458,0.022900763358778626,0.003910541534423828
135,-0.03719789993791599,0.2708956761306412,-0.061068702290076333,-3.5801526717557253,0.30419921875,-0.0460205078125,-1.1209716796875,-0.0916030534351145,-3.6793893129770994,-0.061068702290076333,0.00391077995300293
135,-0.03895289231142598,0.26726953928121766,-0.06870229007633588,-3.648854961832061,0.3076171875,-0.0443115234375,-1.1287841796875,-0.09923664122137404,-3.6030534351145036,-0.0916030534351145,0.0039119720458984375
134,-0.036707656395192335,0.2668477615731836,-0.11450381679389313,-3.4656488549618323,0.302734375,-0.0426025390625,-1.1212158203125,-0.007633587786259542,-3.49618320610687,0.09923664122137404,0.00391077995300293
133,-0.03936335905559413,0.2676977831803687,-0.10687022900763359,-3.648854961832061,0.314453125,-0.0411376953125,-1.1156005859375,0.0,-3.549618320610687,-0.06870229007633588,0.003931283950805664
132,-0.033686394036926685,0.2656280284684428,-0.11450381679389313,-3.5572519083969465,0.303955078125,-0.0472412109375,-1.1197509765625,-0.1450381679389313,-3.5267175572519083,-0.0916030534351145,0.0039119720458984375
132,-0.03839019706408999,0.2712431116178414,-0.183206106870229,-3.6717557251908395,0.31396484375,-0.0452880859375,-1.1248779296875,-0.183206106870229,-3.66412213740458,-0.1450381679389313,0.003919839859008789
131,-0.03597548334043802,0.2713452441543194,-0.06870229007633588,-3.6412213740458017,0.310302734375,-0.0418701171875,-1.1278076171875,0.06870229007633588,-3.877862595419847,0.0,0.003914356231689453
131,-0.03847611958884336,0.2656022256092432,-0.1450381679389313,-3.763358778625954,0.29833984375,-0.0460205078125,-1.1256103515625,-0.0916030534351145,-3.8091603053435112,0.16793893129770993,0.004060029983520508
130,-0.040497988893217846,0.2642853553061657,-0.20610687022900764,-3.7480916030534353,0.3095703125,-0.0469970703125,-1.1209716796875,-0.15267175572519084,-3.519083969465649,0.0,0.003922939300537109
129,-0.03872854812482166,0.2702162371073129,-0.183206106870229,-3.5343511450381677,0.310791015625,-0.0489501953125,-1.1239013671875,-0.17557251908396945,-3.5572519083969465,-0.15267175572519084,0.0039331912994384766
129,-0.04382201498326678,0.26661990857928397,-0.20610687022900764,-3.6717557251908395,0.307861328125,-0.0457763671875,-1.1324462890625,-0.16030534351145037,-3.6717557251908395,-0.03816793893129771,0.004022836685180664
128,-0.036448547496554344,0.267123999848422,-0.16030534351145037,-3.5419847328244276,0.306396484375,-0.0418701171875,-1.1265869140625,-0.05343511450381679,-3.6717557251908395,-0.04580152671755725,0.003919363021850586
127,-0.045938595103877884,0.26757711789549904,-0.1450381679389313,-3.6412213740458017,0.31201171875,-0.0489501953125,-1.1256103515625,-0.1984732824427481,-3.6106870229007635,-0.05343511450381679,0.003914356231689453
127,-0.038490159800132935,0.26743107002637856,-0.183206106870229,-3.6564885496183206,0.310546875,-0.0421142578125,-1.1168212890625,-0.16030534351145037,-3.717557251908397,-0.10687022900763359,0.0039136409759521484
125,-0.03644454802417888,0.2651461727370652,-0.13740458015267176,-3.4656488549618323,0.310546875,-0.0399169921875,-1.1282958984375,-0.08396946564885496,-3.633587786259542,-0.16793893129770993,0.003912687301635742
125,-0.03588428923919573,0.2696473643872619,-0.15267175572519084,-3.6946564885496183,0.306396484375,-0.0421142578125,-1.1265869140625,-0.08396946564885496,-3.7404580152671754,-0.03816793893129771,0.003912210464477539
124,-0.03862996792795496,0.2684259437111726,-0.09923664122137404,-3.6412213740458017,0.30224609375,-0.0457763671875,-1.1334228515625,0.0,-3.8396946564885495,0.022900763358778626,0.003912448883056641
123,-0.03775525788536936,0.2657734245429242,-0.183206106870229,-3.5801526717557253,0.308837890625,-0.0384521484375,-1.1256103515625,-0.13740458015267176,-3.549618320610687,0.030534351145038167,0.003922224044799805
122,-0.03748367359709405,0.2679189187998234,-0.13740458015267176,-3.6793893129770994,0.310791015625,-0.0484619140625,-1.1214599609375,-0.17557251908396945,-3.7786259541984735,-0.06870229007633588,0.003916740417480469
122,-0.043027880891391874,0.2634146868769341,-0.08396946564885496,-3.49618320610687,0.311279296875,-0.0433349609375,-1.1251220703125,-0.12213740458015267,-3.687022900763359,-0.07633587786259542,0.003914356231689453
121,-0.03644049742636884,0.2679295087356173,-0.17557251908396945,-3.5877862595419847,0.306396484375,-0.0452880859375,-1.1263427734375,-0.20610687022900764,-3.648854961832061,0.03816793893129771,0.003912925720214844
120,-0.043194847273658486,0.2607732408334217,-0.13740458015267176,-3.8931297709923665,0.30859375,-0.0447998046875,-1.1302490234375,-0.12213740458015267,-3.7022900763358777,0.03816793893129771,0.003911495208740234
120,-0.03751567648106718,0.27032080578568246,-0.07633587786259542,-3.4885496183206106,0.304931640625,-0.0462646484375,-1.1285400390625,-0.10687022900763359,-3.49618320610687,-0.030534351145038167,0.003912448883056641
119,-0.03700886073022461,0.267281031015654,-0.16030534351145037,-3.519083969465649,0.30712890625,-0.0472412109375,-1.1260986328125,-0.10687022900763359,-3.427480916030534,-0.015267175572519083,0.003911256790161133
118,-0.03792304401029205,0.26894138172023924,-0.061068702290076333,-3.7480916030534353,0.3076171875,-0.0445556640625,-1.1224365234375,-0.1297709923664122,-3.5343511450381677,-0.11450381679389313,0.003912448883056641
117,-0.03505972933618099,0.2710973084122482,0.007633587786259542,-3.549618320610687,0.3076171875,-0.0404052734375,-1.1217041015625,-0.15267175572519084,-3.633587786259542,-0.12213740458015267,0.003912210464477539
116,-0.042132048778395,0.27071721850182706,-0.20610687022900764,-3.6564885496183206,0.310302734375,-0.0465087890625,-1.1114501953125,-0.12213740458015267,-3.7022900763358777,-0.1984732824427481,0.003912210464477539
115,-0.030497777908574122,0.270711110538165,-0.015267175572519083,-3.717557251908397,0.310302734375,-0.0408935546875,-1.1168212890625,-0.21374045801526717,-3.5114503816793894,0.06870229007633588,0.003912925720214844
115,-0.03997006502860017,0.26864199188053284,-0.17557251908396945,-3.5877862595419847,0.304931640625,-0.0399169921875,-1.1246337890625,0.007633587786259542,-3.633587786259542,0.05343511450381679,0.0039103031158447266
114,-0.03287191721261533,0.26951787537619243,-0.17557251908396945,-3.6259541984732824,0.310302734375,-0.0450439453125,-1.1290283203125,-0.3282442748091603,-3.717557251908397,0.030534351145038167,0.003911733627319336
113,-0.0326083063909042,0.26734825224533804,-0.061068702290076333,-3.4732824427480917,0.31494140625,-0.0399169921875,-1.1204833984375,-0.1450381679389313,-3.6946564885496183,-0.0916030534351145,0.003913164138793945
111,-0.03965576575755234,0.2657547413122558,-0.20610687022900764,-3.732824427480916,0.3056640625,-0.0457763671875,-1.1190185546875,0.007633587786259542,-3.6412213740458017,-0.061068702290076333,0.003912448883056641
111,-0.039348911176027214,0.26824640874363,-0.1450381679389313,-3.6717557251908395,0.3115234375,-0.0426025390625,-1.1224365234375,-0.16030534351145037,-3.5801526717557253,0.007633587786259542,0.003928661346435547
110,-0.03681555159862206,0.2712888370970925,-0.15267175572519084,-3.7022900763358777,0.305908203125,-0.0455322265625,-1.1168212890625,-0.12213740458015267,-3.6793893129770994,-0.15267175572519084,0.003914833068847656
109,-0.0383868238514643,0.2630320053045728,-0.21374045801526717,-3.564885496183206,0.299072265625,-0.0408935546875,-1.1199951171875,-0.183206106870229,-3.6717557251908395,-0.022900763358778626,0.003912210464477539
109,-0.03887054357764729,0.26386888734572933,-0.1450381679389313,-3.572519083969466,0.308349609375,-0.0460205078125,-1.1231689453125,-0.20610687022900764,-3.6564885496183206,-0.13740458015267176,0.003911495208740234
108,-0.03796139622339385,0.2644509396238358,-0.183206106870229,-3.7099236641221376,0.3037109375,-0.0474853515625,-1.1199951171875,-0.22137404580152673,-3.33587786259542,-0.06870229007633588,0.003912687301635742
106,-0.03515052088278684,0.26601918235235866,-0.0916030534351145,-3.618320610687023,0.305908203125,-0.0465087890625,-1.1309814453125,-0.16793893129770993,-3.5419847328244276,-0.030534351145038167,0.003911495208740234
107,-0.03920564141246755,0.268489970264663,-0.06870229007633588,-3.49618320610687,0.31201171875,-0.0396728515625,-1.1217041015625,-0.16030534351145037,-3.4656488549618323,0.0,0.003911018371582031
106,-0.041426544830183494,0.26730805058133966,-0.183206106870229,-3.564885496183206,0.306884765625,-0.0450439453125,-1.1275634765625,-0.29770992366412213,-3.732824427480916,0.03816793893129771,0.0039098262786865234
105,-0.036337130060400125,0.26879638554985374,-0.07633587786259542,-3.83206106870229,0.309814453125,-0.0452880859375,-1.1297607421875,-0.022900763358778626,-3.7786259541984735,-0.1450381679389313,0.003912210464477539
104,-0.03837089318726382,0.26674261033381885,-0.1450381679389313,-3.450381679389313,0.306640625,-0.0489501953125,-1.1214599609375,0.0,-3.618320610687023,-0.13740458015267176,0.003912210464477539
104,-0.03789656705968429,0.2678860421485955,-0.07633587786259542,-3.618320610687023,0.3134765625,-0.0462646484375,-1.1290283203125,-0.015267175572519083,-3.50381679389313,-0.05343511450381679,0.00391697883605957
103,-0.03986578422604275,0.26936556214114843,-0.21374045801526717,-3.595419847328244,0.30419921875,-0.0413818359375,-1.1207275390625,-0.17557251908396945,-3.6106870229007635,-0.05343511450381679,0.003912210464477539
102,-0.03649849917676236,0.26163015171437976,-0.11450381679389313,-3.66412213740458,0.302490234375,-0.0433349609375,-1.1207275390625,0.08396946564885496,-3.6717557251908395,-0.12213740458015267,0.003911256790161133
102,-0.03631421641506708,0.264822323529163,-0.0916030534351145,-3.6946564885496183,0.302734375,-0.0384521484375,-1.1324462890625,-0.09923664122137404,-3.618320610687023,-0.022900763358778626,0.003911495208740234
100,-0.04217582076014515,0.26293884438406,-0.09923664122137404,-3.549618320610687,0.305419921875,-0.0438232421875,-1.1229248046875,-0.06870229007633588,-3.6946564885496183,-0.2824427480916031,0.004048824310302734
100,-0.03222693842094042,0.2669792416794517,0.0,-3.6946564885496183,0.3076171875,-0.0430908203125,-1.1197509765625,-0.25190839694656486,-3.6564885496183206,0.09923664122137404,0.003946542739868164
99,-0.03796642722679381,0.2666665746048614,-0.11450381679389313,-3.5343511450381677,0.3134765625,-0.0408935546875,-1.1246337890625,-0.13740458015267176,-3.7557251908396947,0.022900763358778626,0.003911495208740234
99,-0.039890747357502636,0.2686697054412512,-0.04580152671755725,-3.572519083969466,0.30859375,-0.0440673828125,-1.1207275390625,-0.19083969465648856,-3.7480916030534353,-0.007633587786259542,0.003914594650268555
98,-0.037363342472158445,0.2664012444848367,-0.09923664122137404,-3.6793893129770994,0.306884765625,-0.0435791015625,-1.1224365234375,-0.21374045801526717,-3.7022900763358777,0.09923664122137404,0.003913402557373047
98,-0.04105212439375526,0.26707016760617236,-0.183206106870229,-3.7251908396946565,0.30126953125,-0.0445556640625,-1.1158447265625,-0.08396946564885496,-3.633587786259542,-0.03816793893129771,0.003913164138793945
97,-0.04241978703396911,0.2613876674805022,-0.25190839694656486,-3.549618320610687,0.306396484375,-0.0506591796875,-1.1177978515625,-0.030534351145038167,-3.6259541984732824,-0.12213740458015267,0.003911256790161133
96,-0.0341070970564654,0.26628668094799224,-0.1297709923664122,-3.435114503816794,0.30517578125,-0.0386962890625,-1.1199951171875,-0.20610687022900764,-3.687022900763359,0.05343511450381679,0.003913402557373047
96,-0.03652480773304424,0.2666115644591709,-0.25190839694656486,-3.4885496183206106,0.304931640625,-0.0396728515625,-1.1248779296875,-0.16030534351145037,-3.5114503816793894,-0.20610687022900764,0.0039119720458984375
95,-0.040651011871378435,0.2707453343554305,-0.061068702290076333,-3.435114503816794,0.310546875,-0.0467529296875,-1.1182861328125,-0.20610687022900764,-3.450381679389313,-0.061068702290076333,0.0039119720458984375
95,-0.04135227610890426,0.2678547553877082,-0.16030534351145037,-3.6717557251908395,0.30615234375,-0.0457763671875,-1.1124267578125,-0.15267175572519084,-3.7709923664122136,-0.03816793893129771,0.003911733627319336
95,-0.04150503448273956,0.2681268538025902,-0.13740458015267176,-3.7557251908396947,0.306640625,-0.0416259765625,-1.1246337890625,-0.15267175572519084,-3.6106870229007635,-0.04580152671755725,0.004011392593383789
94,-0.04251858132961061,0.26483662221505805,-0.05343511450381679,-3.572519083969466,0.3076171875,-0.0450439453125,-1.1195068359375,-0.16793893129770993,-3.595419847328244,-0.030534351145038167,0.004229545593261719
94,-0.032877393467217034,0.2689143555225428,-0.05343511450381679,-3.786259541984733,0.307373046875,-0.0418701171875,-1.1236572265625,0.007633587786259542,-3.6259541984732824,0.05343511450381679,0.003926992416381836
93,-0.04309142989296957,0.2664309142950653,-0.25190839694656486,-3.519083969465649,0.30615234375,-0.0482177734375,-1.1246337890625,-0.17557251908396945,-3.618320610687023,-0.0916030534351145,0.0039212703704833984
93,-0.03789403307952842,0.2669990285576182,-0.06870229007633588,-3.717557251908397,0.3095703125,-0.0411376953125,-1.1256103515625,-0.1450381679389313,-3.66412213740458,0.13740458015267176,0.004017353057861328
92,-0.03829533530189304,0.2722984071055689,-0.1297709923664122,-3.6106870229007635,0.30859375,-0.0474853515625,-1.1146240234375,-0.12213740458015267,-3.633587786259542,-0.1450381679389313,0.0039157867431640625
92,-0.03779545519231232,0.2658461466352544,-0.1450381679389313,-3.595419847328244,0.30859375,-0.0443115234375,-1.1239013671875,-0.1984732824427481,-3.5801526717557253,-0.16030534351145037,0.0039157867431640625
92,-0.040480478236507245,0.2673217462149753,-0.1450381679389313,-3.618320610687023,0.305908203125,-0.0494384765625,-1.1138916015625,-0.1450381679389313,-3.618320610687023,0.0,0.003909111022949219
92,-0.03706142805956358,0.2620462492181899,-0.10687022900763359,-3.6030534351145036,0.30322265625,-0.0426025390625,-1.1241455078125,-0.10687022900763359,-3.5114503816793894,-0.08396946564885496,0.003908872604370117
91,-0.03615909065385361,0.27157855473855086,-0.29770992366412213,-3.717557251908397,0.3037109375,-0.0430908203125,-1.1236572265625,-0.2366412213740458,-3.717557251908397,-0.0916030534351145,0.00391387939453125
91,-0.03233810067674657,0.2646687016068143,-0.19083969465648856,-3.4427480916030535,0.306884765625,-0.0426025390625,-1.1151123046875,-0.19083969465648856,-3.816793893129771,-0.061068702290076333,0.003926277160644531
91,-0.03874260855044072,0.26476331193472374,-0.015267175572519083,-3.6412213740458017,0.303466796875,-0.0428466796875,-1.1231689453125,-0.061068702290076333,-3.7022900763358777,-0.10687022900763359,0.003920555114746094
90,-0.04153189784930599,0.2665607685685455,-0.1297709923664122,-3.633587786259542,0.308837890625,-0.0433349609375,-1.1217041015625,-0.07633587786259542,-3.717557251908397,-0.06870229007633588,0.003912448883056641
90,-0.03318537372779112,0.2682173423755927,-0.17557251908396945,-3.6106870229007635,0.307861328125,-0.0426025390625,-1.1251220703125,0.007633587786259542,-3.732824427480916,-0.13740458015267176,0.003913164138793945
90,-0.0389095874302019,0.2617513002289793,-0.2748091603053435,-3.7251908396946565,0.311279296875,-0.0404052734375,-1.1234130859375,-0.22900763358778625,-3.7557251908396947,-0.007633587786259542,0.003913164138793945
90,-0.038661127986721736,0.2654360905779065,-0.05343511450381679,-3.6030534351145036,0.300048828125,-0.0433349609375,-1.1378173828125,-0.08396946564885496,-3.49618320610687,-0.07633587786259542,0.003916263580322266
90,-0.04070607771115062,0.27133829714379737,-0.12213740458015267,-3.7022900763358777,0.311767578125,-0.0435791015625,-1.1231689453125,-0.1984732824427481,-3.6946564885496183,-0.015267175572519083,0.003913402557373047
90,-0.03617359019174057,0.265384118038846,-0.05343511450381679,-3.6030534351145036,0.305419921875,-0.0438232421875,-1.1212158203125,-0.12213740458015267,-3.687022900763359,-0.13740458015267176,0.0039632320404052734
90,-0.038129102927728066,0.26762007341675614,-0.09923664122137404,-3.900763358778626,0.30712890625,-0.0452880859375,-1.1190185546875,-0.1450381679389313,-3.7709923664122136,0.10687022900763359,0.003962039947509766
89,-0.040394705695112096,0.27120871405694563,-0.03816793893129771,-3.595419847328244,0.307373046875,-0.0487060546875,-1.1263427734375,-0.08396946564885496,-3.366412213740458,-0.08396946564885496,0.003915548324584961
89,-0.03666771254535074,0.27001661150926226,-0.11450381679389313,-3.549618320610687,0.3095703125,-0.0421142578125,-1.1217041015625,-0.09923664122137404,-3.572519083969466,-0.061068702290076333,0.003912925720214844
89,-0.03427866882018525,0.2703292660537625,-0.022900763358778626,-3.572519083969466,0.306884765625,-0.0411376953125,-1.1202392578125,-0.16030534351145037,-3.50381679389313,-0.04580152671755725,0.00391387939453125
89,-0.04026090617264929,0.2698544009829155,-0.15267175572519084,-3.450381679389313,0.30908203125,-0.0391845703125,-1.1209716796875,-0.10687022900763359,-3.7251908396946565,-0.11450381679389313,0.003913164138793945
89,-0.03806224413443512,0.2706053903031791,-0.022900763358778626,-3.4656488549618323,0.310546875,-0.0450439453125,-1.1246337890625,-0.09923664122137404,-3.519083969465649,-0.061068702290076333,0.003913164138793945
89,-0.03872972261889676,0.26764932064856256,-0.16793893129770993,-3.5419847328244276,0.3095703125,-0.0455322265625,-1.1256103515625,-0.1984732824427481,-3.519083969465649,-0.06870229007633588,0.003911495208740234
89,-0.03831853840371819,0.2637598563664721,-0.22900763358778625,-3.549618320610687,0.307861328125,-0.0469970703125,-1.1204833984375,-0.20610687022900764,-3.6412213740458017,-0.022900763358778626,0.003911733627319336
88,-0.03837659921304105,0.2717999229414583,-0.19083969465648856,-3.480916030534351,0.30517578125,-0.0484619140625,-1.1270751953125,-0.12213740458015267,-3.6106870229007635,-0.06870229007633588,0.003912448883056641
89,-0.036337639109496896,0.2643917029162367,-0.2824427480916031,-3.564885496183206,0.30712890625,-0.0384521484375,-1.1192626953125,-0.06870229007633588,-3.8473282442748094,0.16030534351145037,0.004060506820678711
88,-0.039652355840242924,0.2718935607475791,-0.12213740458015267,-3.6106870229007635,0.312255859375,-0.0428466796875,-1.1253662109375,-0.03816793893129771,-3.732824427480916,-0.0916030534351145,0.004069805145263672
88,-0.03966096541671019,0.2618078240331404,-0.1984732824427481,-3.8702290076335877,0.3125,-0.0455322265625,-1.1253662109375,-0.24427480916030533,-3.480916030534351,0.0916030534351145,0.0039255619049072266
88,-0.03539040432909225,0.2708234964518002,-0.04580152671755725,-3.6946564885496183,0.310302734375,-0.0482177734375,-1.1256103515625,-0.015267175572519083,-3.6030534351145036,0.022900763358778626,0.0039141178131103516
88,-0.03430521285187067,0.26989074682445885,-0.0916030534351145,-3.717557251908397,0.310302734375,-0.0406494140625,-1.1285400390625,-0.0916030534351145,-3.7557251908396947,-0.05343511450381679,0.0039136409759521484
88,-0.036655175032877386,0.26867504506558354,-0.1450381679389313,-3.564885496183206,0.30078125,-0.0433349609375,-1.1212158203125,-0.183206106870229,-3.595419847328244,0.007633587786259542,0.003916501998901367
87,-0.03730998914283355,0.27561847828909947,-0.061068702290076333,-3.7251908396946565,0.306640625,-0.0457763671875,-1.1212158203125,-0.1450381679389313,-3.7557251908396947,-0.09923664122137404,0.003911733627319336
87,-0.03576067937398856,0.2710891480538666,-0.03816793893129771,-3.5801526717557253,0.303955078125,-0.0438232421875,-1.1158447265625,-0.2366412213740458,-3.4732824427480917,-0.183206106870229,0.003914594650268555
87,-0.03793539670726065,0.27011506606651914,-0.1984732824427481,-3.6793893129770994,0.309326171875,-0.0469970703125,-1.1307373046875,-0.19083969465648856,-3.648854961832061,-0.09923664122137404,0.0039136409759521484
88,-0.03455996309950772,0.26900970909675254,-0.2366412213740458,-3.564885496183206,0.305908203125,-0.0491943359375,-1.1285400390625,-0.030534351145038167,-3.618320610687023,0.007633587786259542,0.003941059112548828
87,-0.03953715697861326,0.2685359239900596,-0.03816793893129771,-3.4656488549618323,0.305908203125,-0.0472412109375,-1.1280517578125,-0.10687022900763359,-3.5801526717557253,-0.31297709923664124,0.0039327144622802734
87,-0.034061621977155426,0.2615816332520035,-0.22900763358778625,-3.5419847328244276,0.302734375,-0.0426025390625,-1.1253662109375,-0.08396946564885496,-3.5343511450381677,-0.11450381679389313,0.0039136409759521484
87,-0.03680646642737734,0.26905689157202495,-0.13740458015267176,-3.763358778625954,0.30908203125,-0.0433349609375,-1.1273193359375,-0.08396946564885496,-3.5114503816793894,-0.03816793893129771,0.003912687301635742
87,-0.042721722101608565,0.2621840270516727,-0.06870229007633588,-3.7786259541984735,0.303466796875,-0.0474853515625,-1.1280517578125,0.007633587786259542,-3.687022900763359,-0.13740458015267176,0.003912687301635742
87,-0.03816899662201234,0.2661726099378557,-0.08396946564885496,-3.5114503816793894,0.306396484375,-0.0430908203125,-1.1209716796875,-0.1984732824427481,-3.5343511450381677,-0.07633587786259542,0.003912925720214844
87,-0.035072436958137686,0.26541419570437885,-0.3282442748091603,-3.7480916030534353,0.310791015625,-0.0474853515625,-1.1207275390625,-0.1297709923664122,-3.519083969465649,-0.04580152671755725,0.003913402557373047
87,-0.0403922583742114,0.26510054616403866,0.0,-3.66412213740458,0.30615234375,-0.0406494140625,-1.1197509765625,-0.15267175572519084,-3.816793893129771,-0.19083969465648856,0.003911495208740234
87,-0.03787659424186213,0.2627354113795856,-0.022900763358778626,-3.564885496183206,0.3095703125,-0.0377197265625,-1.1270751953125,-0.22900763358778625,-3.435114503816794,-0.04580152671755725,0.003912448883056641
86,-0.039442759953475855,0.2670162806462044,-0.11450381679389313,-3.519083969465649,0.3076171875,-0.0421142578125,-1.1324462890625,-0.2595419847328244,-3.687022900763359,-0.015267175572519083,0.00391387939453125
86,-0.0355291549128716,0.2693974255666953,-0.10687022900763359,-3.519083969465649,0.305419921875,-0.0482177734375,-1.1229248046875,-0.061068702290076333,-3.6793893129770994,-0.1297709923664122,0.003912210464477539
87,-0.036348173234963886,0.2605469838457834,-0.1450381679389313,-3.763358778625954,0.308349609375,-0.0501708984375,-1.1229248046875,-0.16793893129770993,-3.6259541984732824,-0.0916030534351145,0.0039119720458984375
86,-0.034308433958569556,0.26789655554564606,-0.12213740458015267,-3.83206106870229,0.30908203125,-0.0435791015625,-1.1207275390625,-0.022900763358778626,-3.4656488549618323,-0.03816793893129771,0.003911256790161133
87,-0.042532579536143825,0.26362070139753685,-0.2900763358778626,-3.618320610687023,0.30908203125,-0.0462646484375,-1.1282958984375,-0.16793893129770993,-3.7022900763358777,-0.10687022900763359,0.003911733627319336
86,-0.03890615673297054,0.2681106084402744,-0.17557251908396945,-3.572519083969466,0.301513671875,-0.0447998046875,-1.1207275390625,-0.16793893129770993,-3.717557251908397,0.04580152671755725,0.003912210464477539
87,-0.036303738926061674,0.2665798168320098,-0.15267175572519084,-3.549618320610687,0.30712890625,-0.0455322265625,-1.1268310546875,-0.1297709923664122,-3.5419847328244276,0.04580152671755725,0.003911256790161133
86,-0.04063540493008938,0.26641873108360475,-0.19083969465648856,-3.6564885496183206,0.30810546875,-0.0460205078125,-1.1209716796875,-0.15267175572519084,-3.7099236641221376,-0.19083969465648856,0.00391077995300293
86,-0.03793999649372148,0.27015643196191413,-0.16030534351145037,-3.687022900763359,0.307373046875,-0.0452880859375,-1.1170654296875,0.022900763358778626,-3.6946564885496183,0.0916030534351145,0.003912210464477539
86,-0.03977636514925425,0.2716700000183883,-0.12213740458015267,-3.4580152671755724,0.312744140625,-0.0423583984375,-1.1180419921875,-0.03816793893129771,-3.5343511450381677,-0.0916030534351145,0.003912448883056641
87,-0.03998033640785201,0.2637368643104545,0.007633587786259542,-3.5572519083969465,0.301025390625,-0.0462646484375,-1.1287841796875,-0.12213740458015267,-3.687022900763359,-0.007633587786259542,0.003911018371582031
86,-0.038091257536158336,0.26385526402338705,-0.07633587786259542,-3.5801526717557253,0.306396484375,-0.0406494140625,-1.1199951171875,-0.10687022900763359,-3.549618320610687,-0.19083969465648856,0.0039119720458984375
87,-0.03599819956481517,0.26493173302649825,-0.26717557251908397,-3.7557251908396947,0.309326171875,-0.0438232421875,-1.1258544921875,-0.07633587786259542,-3.7938931297709924,0.04580152671755725,0.003912925720214844
87,-0.04091384425305111,0.2655948246712022,-0.08396946564885496,-3.4885496183206106,0.310302734375,-0.0445556640625,-1.1236572265625,-0.1297709923664122,-3.564885496183206,0.1984732824427481,0.003912210464477539
86,-0.04338023153178525,0.2638784968649363,-0.061068702290076333,-3.564885496183206,0.302734375,-0.0455322265625,-1.1260986328125,-0.1450381679389313,-3.4732824427480917,0.007633587786259542,0.003911733627319336
86,-0.039704624526714666,0.2614469879609301,-0.12213740458015267,-3.5419847328244276,0.303955078125,-0.0416259765625,-1.1336669921875,-0.183206106870229,-3.4885496183206106,0.05343511450381679,0.003912448883056641
86,-0.03674348236710484,0.2666429550954381,-0.007633587786259542,-3.8244274809160306,0.30810546875,-0.0501708984375,-1.1263427734375,0.022900763358778626,-3.5572519083969465,0.0,0.003911733627319336
86,-0.035913393438710785,0.2640772713276748,-0.05343511450381679,-3.5801526717557253,0.308837890625,-0.0426025390625,-1.1258544921875,-0.1297709923664122,-3.6106870229007635,-0.05343511450381679,0.00391840934753418
86,-0.040149351182966385,0.2681370232750601,-0.07633587786259542,-3.4656488549618323,0.311767578125,-0.0396728515625,-1.1226806640625,-0.21374045801526717,-3.6564885496183206,0.030534351145038167,0.003914356231689453
86,-0.03761653640010275,0.2636796104589812,-0.061068702290076333,-3.5801526717557253,0.3076171875,-0.0450439453125,-1.1192626953125,-0.1984732824427481,-3.6259541984732824,-0.11450381679389313,0.003912210464477539
86,-0.04056530352260308,0.266808863977739,-0.2748091603053435,-3.7938931297709924,0.30224609375,-0.0408935546875,-1.1114501953125,-0.12213740458015267,-3.7938931297709924,-0.10687022900763359,0.003911495208740234
86,-0.03812004395467464,0.26427685492948666,-0.13740458015267176,-3.5877862595419847,0.309326171875,-0.0418701171875,-1.1290283203125,-0.183206106870229,-3.6030534351145036,0.0,0.003912687301635742
86,-0.037401572730767385,0.26645411745645364,-0.1297709923664122,-3.8625954198473282,0.30859375,-0.0457763671875,-1.1268310546875,-0.1297709923664122,-3.7938931297709924,-0.03816793893129771,0.004014730453491211
86,-0.04009283260791915,0.26459940821897454,-0.183206106870229,-3.3969465648854964,0.304443359375,-0.0467529296875,-1.1224365234375,-0.0916030534351145,-3.6717557251908395,-0.061068702290076333,0.0039212703704833984
85,-0.03997524531739805,0.26490266294908277,-0.20610687022900764,-3.7251908396946565,0.304443359375,-0.0462646484375,-1.1290283203125,-0.2900763358778626,-3.5267175572519083,-0.04580152671755725,0.0039136409759521484
86,-0.04431951294627619,0.26538999818690984,-0.04580152671755725,-3.6030534351145036,0.30859375,-0.0404052734375,-1.1275634765625,-0.12213740458015267,-3.717557251908397,0.030534351145038167,0.003911733627319336
86,-0.04057298105772638,0.27064569902972585,-0.11450381679389313,-3.519083969465649,0.309326171875,-0.0460205078125,-1.1160888671875,-0.007633587786259542,-3.6717557251908395,-0.08396946564885496,0.003911495208740234
86,-0.03445214694425876,0.2685817896317209,-0.22137404580152673,-3.5877862595419847,0.306884765625,-0.0435791015625,-1.1275634765625,-0.06870229007633588,-3.549618320610687,-0.07633587786259542,0.003912448883056641
85,-0.0355331175065531,0.2689933632293521,-0.07633587786259542,-3.6564885496183206,0.3076171875,-0.0460205078125,-1.1209716796875,-0.07633587786259542,-3.519083969465649,0.015267175572519083,0.003911495208740234
85,-0.03585911210547573,0.2689276166041261,-0.061068702290076333,-3.7557251908396947,0.305419921875,-0.0396728515625,-1.1248779296875,-0.11450381679389313,-3.66412213740458,-0.1297709923664122,0.00391697883605957
86,-0.03716570649593049,0.26366785921075425,-0.16030534351145037,-3.7480916030534353,0.304443359375,-0.0411376953125,-1.1180419921875,0.0,-3.801526717557252,-0.022900763358778626,0.0039331912994384766
86,-0.03545679270038676,0.2697031881075383,-0.19083969465648856,-3.5419847328244276,0.30126953125,-0.0396728515625,-1.1273193359375,-0.20610687022900764,-3.732824427480916,-0.16793893129770993,0.0039141178131103516
86,-0.03573077031264565,0.2685898442092009,-0.17557251908396945,-3.801526717557252,0.3076171875,-0.0445556640625,-1.1231689453125,-0.05343511450381679,-3.6412213740458017,0.061068702290076333,0.003913402557373047
86,-0.03811567102394523,0.269469600938406,-0.2595419847328244,-3.5267175572519083,0.304931640625,-0.0474853515625,-1.1226806640625,-0.183206106870229,-3.5572519083969465,-0.11450381679389313,0.003911256790161133
86,-0.039531785353838625,0.26952343365596243,-0.24427480916030533,-3.7938931297709924,0.305908203125,-0.0511474609375,-1.1231689453125,-0.1450381679389313,-3.49618320610687,0.0,0.003911018371582031
86,-0.035811320035356406,0.2650976461704518,-0.0916030534351145,-3.366412213740458,0.30224609375,-0.0421142578125,-1.1243896484375,-0.16793893129770993,-3.4732824427480917,0.11450381679389313,0.00391077995300293
85,-0.0435603889994672,0.2662955728602219,-0.20610687022900764,-3.732824427480916,0.3056640625,-0.0487060546875,-1.1239013671875,-0.12213740458015267,-3.450381679389313,-0.1984732824427481,0.003911018371582031
86,-0.040605961338927334,0.2684891706458482,-0.12213740458015267,-3.572519083969466,0.303466796875,-0.0472412109375,-1.1287841796875,-0.11450381679389313,-3.5114503816793894,-0.061068702290076333,0.003911256790161133
86,-0.039235885304888155,0.2680511957681765,-0.0916030534351145,-3.7022900763358777,0.305908203125,-0.0416259765625,-1.1260986328125,-0.061068702290076333,-3.6717557251908395,-0.030534351145038167,0.004016876220703125
86,-0.037579977524476955,0.2640677891481306,-0.31297709923664124,-3.6564885496183206,0.306396484375,-0.0389404296875,-1.1199951171875,-0.04580152671755725,-3.549618320610687,0.12213740458015267,0.0039463043212890625
85,-0.03881525024531008,0.2723644021848858,-0.05343511450381679,-3.6793893129770994,0.31005859375,-0.0411376953125,-1.1224365234375,-0.22900763358778625,-3.648854961832061,-0.2595419847328244,0.003924369812011719
85,-0.040900208481265674,0.2691719604484561,-0.17557251908396945,-3.618320610687023,0.311279296875,-0.0518798828125,-1.1231689453125,-0.29770992366412213,-3.816793893129771,0.03816793893129771,0.0039157867431640625
86,-0.035662526681533385,0.273148828937447,-0.1450381679389313,-3.549618320610687,0.310546875,-0.0423583984375,-1.1280517578125,-0.13740458015267176,-3.8244274809160306,0.12213740458015267,0.003919124603271484
86,-0.03663712077105431,0.2667554483301829,-0.09923664122137404,-3.854961832061069,0.309814453125,-0.0457763671875,-1.1287841796875,-0.13740458015267176,-3.5877862595419847,-0.31297709923664124,0.003911495208740234
86,-0.036223069096554206,0.26959709506757285,-0.1297709923664122,-3.648854961832061,0.31103515625,-0.0443115234375,-1.1217041015625,-0.13740458015267176,-3.717557251908397,0.13740458015267176,0.003914594650268555
86,-0.035621165378052926,0.2710892835144814,-0.007633587786259542,-3.6106870229007635,0.308837890625,-0.0487060546875,-1.1253662109375,0.05343511450381679,-3.816793893129771,0.11450381679389313,0.003920793533325195
86,-0.04100214944348732,0.26639787695134204,-0.17557251908396945,-3.6793893129770994,0.308837890625,-0.0443115234375,-1.1168212890625,-0.061068702290076333,-3.83206106870229,0.0916030534351145,0.0039215087890625
86,-0.03219590633894131,0.2712545675687627,-0.17557251908396945,-3.6564885496183206,0.307373046875,-0.0450439453125,-1.1195068359375,-0.16030534351145037,-3.6259541984732824,-0.11450381679389313,0.003912448883056641
85,-0.04097340883322176,0.26813795086401704,-0.12213740458015267,-3.5114503816793894,0.304931640625,-0.0433349609375,-1.1278076171875,-0.12213740458015267,-3.6564885496183206,-0.0916030534351145,0.003913402557373047
86,-0.03396356137765702,0.2679111344473237,-0.24427480916030533,-3.6259541984732824,0.306396484375,-0.0447998046875,-1.1256103515625,-0.2595419847328244,-3.50381679389313,-0.07633587786259542,0.003917217254638672
86,-0.03587931943107737,0.26834711921314647,-0.022900763358778626,-3.83206106870229,0.310302734375,-0.0438232421875,-1.1180419921875,-0.07633587786259542,-3.6564885496183206,-0.10687022900763359,0.0039217472076416016
85,-0.038257855837314426,0.27334358617174,-0.11450381679389313,-3.7557251908396947,0.307861328125,-0.0462646484375,-1.1207275390625,-0.06870229007633588,-3.6412213740458017,-0.12213740458015267,0.00391387939453125
86,-0.03578376387641758,0.2679161280557734,-0.15267175572519084,-3.5343511450381677,0.31298828125,-0.0440673828125,-1.1207275390625,0.0,-3.519083969465649,0.022900763358778626,0.003912448883056641
86,-0.03412466627709361,0.26540698419804226,-0.15267175572519084,-3.6412213740458017,0.305419921875,-0.0430908203125,-1.1231689453125,-0.015267175572519083,-3.7022900763358777,-0.06870229007633588,0.003911256790161133
85,-0.04253160011221614,0.2731962482110899,-0.22137404580152673,-3.618320610687023,0.308349609375,-0.0482177734375,-1.1275634765625,-0.15267175572519084,-3.4122137404580153,-0.030534351145038167,0.003930568695068359
85,-0.03835059603249077,0.2672999505934463,-0.13740458015267176,-3.6946564885496183,0.307861328125,-0.0511474609375,-1.1248779296875,-0.06870229007633588,-3.450381679389313,-0.022900763358778626,0.0039212703704833984
86,-0.03651815434764235,0.2652218336279824,-0.1297709923664122,-3.6793893129770994,0.30419921875,-0.0452880859375,-1.1219482421875,-0.0916030534351145,-3.7709923664122136,-0.12213740458015267,0.003915309906005859
86,-0.04097434026953132,0.2660874629812526,-0.183206106870229,-3.6030534351145036,0.31005859375,-0.0443115234375,-1.1241455078125,-0.16793893129770993,-3.572519083969466,-0.0916030534351145,0.00391387939453125
86,-0.03795514548911376,0.26743997034841316,-0.1450381679389313,-3.549618320610687,0.304931640625,-0.0452880859375,-1.1317138671875,-0.16030534351145037,-3.5343511450381677,-0.21374045801526717,0.003913164138793945
86,-0.03520166691954648,0.2670689671287732,-0.15267175572519084,-3.564885496183206,0.3095703125,-0.0382080078125,-1.1236572265625,0.007633587786259542,-3.4885496183206106,-0.22137404580152673,0.0039141178131103516
86,-0.040442688141861624,0.26598323611042346,-0.1297709923664122,-3.7709923664122136,0.302490234375,-0.0423583984375,-1.1129150390625,-0.21374045801526717,-3.564885496183206,-0.030534351145038167,0.003913164138793945
85,-0.039221108594341095,0.2641892110510378,-0.04580152671755725,-3.6717557251908395,0.302001953125,-0.0382080078125,-1.1236572265625,-0.22137404580152673,-3.732824427480916,-0.022900763358778626,0.0040476322174072266
86,-0.040153031319073246,0.26381698064604575,-0.13740458015267176,-3.5114503816793894,0.30712890625,-0.0418701171875,-1.1273193359375,-0.15267175572519084,-3.7022900763358777,-0.022900763358778626,0.003922939300537109
86,-0.035669999652708985,0.27005503470136283,-0.08396946564885496,-3.786259541984733,0.308349609375,-0.0396728515625,-1.1319580078125,-0.1450381679389313,-3.6564885496183206,-0.0916030534351145,0.003915309906005859
85,-0.03694998223014277,0.2714350344174859,-0.16793893129770993,-3.7404580152671754,0.311279296875,-0.0443115234375,-1.1329345703125,-0.12213740458015267,-3.633587786259542,-0.10687022900763359,0.00393223762512207
86,-0.038319528571659316,0.2638088972662311,-0.022900763358778626,-3.7938931297709924,0.310791015625,-0.0489501953125,-1.1326904296875,-0.12213740458015267,-3.6259541984732824,-0.15267175572519084,0.003913402557373047
85,-0.03864985627773832,0.2681330786243233,-0.183206106870229,-3.7022900763358777,0.3017578125,-0.0465087890625,-1.1246337890625,0.0,-3.648854961832061,-0.061068702290076333,0.003915309906005859
86,-0.03900544283318659,0.26530194558910536,-0.15267175572519084,-3.595419847328244,0.314208984375,-0.0408935546875,-1.1224365234375,0.0,-3.763358778625954,-0.03816793893129771,0.0039119720458984375
86,-0.034389572180752885,0.2649012221637891,-0.21374045801526717,-3.572519083969466,0.306396484375,-0.0479736328125,-1.1246337890625,-0.2900763358778626,-3.3740458015267176,-0.1297709923664122,0.003920793533325195
86,-0.03642712185426557,0.26371909169169694,-0.1297709923664122,-3.572519083969466,0.3056640625,-0.0465087890625,-1.1239013671875,-0.0916030534351145,-3.4885496183206106,0.015267175572519083,0.003914594650268555
86,-0.04136642846790942,0.26525665741322796,-0.183206106870229,-3.595419847328244,0.305419921875,-0.0440673828125,-1.1204833984375,-0.2824427480916031,-3.633587786259542,-0.030534351145038167,0.0039136409759521484
85,-0.03643448640394503,0.2724329311208767,-0.030534351145038167,-3.435114503816794,0.303955078125,-0.0399169921875,-1.1280517578125,-0.12213740458015267,-3.8244274809160306,0.10687022900763359,0.00391387939453125
85,-0.042078066812852234,0.26905582056603483,-0.007633587786259542,-3.6793893129770994,0.3076171875,-0.0479736328125,-1.1221923828125,-0.11450381679389313,-3.6717557251908395,-0.04580152671755725,0.003912687301635742
85,-0.03522951905285598,0.2681575639099381,-0.1297709923664122,-3.564885496183206,0.310302734375,-0.0484619140625,-1.1158447265625,-0.08396946564885496,-3.7786259541984735,-0.015267175572519083,0.0039141178131103516
86,-0.0382236572385533,0.26569474608998356,-0.13740458015267176,-3.549618320610687,0.30517578125,-0.0474853515625,-1.1295166015625,-0.20610687022900764,-3.6946564885496183,-0.03816793893129771,0.003913164138793945
85,-0.041156344088080644,0.26850934913956287,-0.21374045801526717,-3.572519083969466,0.306396484375,-0.0413818359375,-1.1239013671875,0.015267175572519083,-3.648854961832061,-0.007633587786259542,0.003913164138793945
86,-0.03961182739489163,0.26797167544288236,-0.07633587786259542,-3.763358778625954,0.30517578125,-0.0479736328125,-1.1241455078125,-0.11450381679389313,-3.6793893129770994,-0.03816793893129771,0.003912448883056641
85,-0.038308401747133985,0.26567671986426067,-0.17557251908396945,-3.435114503816794,0.310546875,-0.0406494140625,-1.1241455078125,-0.17557251908396945,-3.564885496183206,-0.17557251908396945,0.003913402557373047
86,-0.04242754579556523,0.26734500760134544,-0.1984732824427481,-3.6946564885496183,0.3095703125,-0.0484619140625,-1.1326904296875,-0.1450381679389313,-3.5419847328244276,-0.05343511450381679,0.003913164138793945
85,-0.04190683955210745,0.2696684496526781,-0.0916030534351145,-3.6030534351145036,0.30859375,-0.0401611328125,-1.1207275390625,0.007633587786259542,-3.648854961832061,-0.15267175572519084,0.003913402557373047
86,-0.036973586488508514,0.2659646375347655,-0.1297709923664122,-3.763358778625954,0.30419921875,-0.0404052734375,-1.1236572265625,-0.11450381679389313,-3.5267175572519083,0.007633587786259542,0.003912925720214844
85,-0.03535782043462693,0.2710034424120189,-0.09923664122137404,-3.816793893129771,0.30419921875,-0.0457763671875,-1.1214599609375,0.030534351145038167,-3.564885496183206,-0.022900763358778626,0.003912687301635742
85,-0.038637763687407595,0.2684814261288997,-0.08396946564885496,-3.687022900763359,0.3125,-0.0447998046875,-1.1260986328125,-0.17557251908396945,-3.6412213740458017,-0.0916030534351145,0.003912687301635742
86,-0.040135476997727834,0.2662079090739484,-0.0916030534351145,-3.7022900763358777,0.301513671875,-0.0416259765625,-1.1248779296875,-0.061068702290076333,-3.3206106870229006,0.0916030534351145,0.003912210464477539
85,-0.038064919173138624,0.26823989186276553,-0.10687022900763359,-3.877862595419847,0.30859375,-0.0440673828125,-1.1268310546875,-0.10687022900763359,-3.6106870229007635,0.15267175572519084,0.003912925720214844
85,-0.04077592307945019,0.26985776972562664,-0.1450381679389313,-3.6030534351145036,0.306396484375,-0.0440673828125,-1.1175537109375,-0.007633587786259542,-3.763358778625954,0.0,0.003911733627319336
85,-0.032668923060739985,0.2665366819400761,-0.183206106870229,-3.801526717557252,0.310302734375,-0.0426025390625,-1.1358642578125,-0.061068702290076333,-3.618320610687023,0.061068702290076333,0.003912448883056641
85,-0.03921392689948858,0.2699810493797058,-0.20610687022900764,-3.6717557251908395,0.3076171875,-0.0418701171875,-1.1131591796875,-0.09923664122137404,-3.7099236641221376,-0.030534351145038167,0.00391387939453125
86,-0.04090757150379881,0.26922326080639813,0.007633587786259542,-3.6412213740458017,0.30810546875,-0.0447998046875,-1.1207275390625,-0.12213740458015267,-3.6793893129770994,0.04580152671755725,0.00391077995300293
86,-0.036384227058828406,0.26805967904837097,-0.15267175572519084,-3.4656488549618323,0.306396484375,-0.0457763671875,-1.1231689453125,-0.16793893129770993,-3.50381679389313,-0.04580152671755725,0.003913402557373047
86,-0.041227919966051095,0.2656451122115234,-0.1297709923664122,-3.4732824427480917,0.3076171875,-0.0435791015625,-1.1236572265625,-0.06870229007633588,-3.519083969465649,0.03816793893129771,0.003913402557373047
85,-0.03548771217330237,0.27114952975107653,-0.17557251908396945,-3.7709923664122136,0.306884765625,-0.0491943359375,-1.1197509765625,-0.21374045801526717,-3.7786259541984735,-0.11450381679389313,0.0039119720458984375
86,-0.035973018890415126,0.27296006219614893,-0.11450381679389313,-3.6946564885496183,0.299560546875,-0.0433349609375,-1.1138916015625,-0.19083969465648856,-3.687022900763359,0.0,0.003916740417480469
86,-0.03522038624087476,0.2635109045070372,-0.08396946564885496,-3.6564885496183206,0.31005859375,-0.0455322265625,-1.1219482421875,-0.3435114503816794,-3.7480916030534353,0.06870229007633588,0.003924846649169922
86,-0.042395104126407845,0.26274893925110837,0.0,-3.633587786259542,0.307861328125,-0.0452880859375,-1.1234130859375,0.0916030534351145,-3.687022900763359,-0.09923664122137404,0.003966331481933594
85,-0.0386265232276889,0.26476147991839366,-0.22137404580152673,-3.5267175572519083,0.306640625,-0.0491943359375,-1.1256103515625,-0.2366412213740458,-3.5572519083969465,-0.07633587786259542,0.003922700881958008
86,-0.035854085324878986,0.2663625733991269,-0.08396946564885496,-3.6564885496183206,0.311767578125,-0.0443115234375,-1.1273193359375,-0.10687022900763359,-3.480916030534351,0.022900763358778626,0.003914594650268555
85,-0.04065259845084517,0.2684857974676307,-0.16030534351145037,-3.8396946564885495,0.30517578125,-0.0455322265625,-1.1241455078125,-0.2595419847328244,-3.564885496183206,-0.16030534351145037,0.003912448883056641
85,-0.03680326644358551,0.26622277920174225,-0.19083969465648856,-3.49618320610687,0.310546875,-0.0467529296875,-1.1204833984375,-0.3282442748091603,-3.450381679389313,-0.03816793893129771,0.003912448883056641
85,-0.04277071064195938,0.26837047743814474,-0.09923664122137404,-3.4885496183206106,0.308837890625,-0.0477294921875,-1.1300048828125,-0.11450381679389313,-3.5877862595419847,-0.04580152671755725,0.003911733627319336
85,-0.03501331276822552,0.2660390750442838,-0.17557251908396945,-3.717557251908397,0.301025390625,-0.0411376953125,-1.1239013671875,-0.06870229007633588,-3.4885496183206106,-0.03816793893129771,0.004026651382446289
85,-0.0353066719570131,0.2699495619648744,-0.1450381679389313,-3.6030534351145036,0.306640625,-0.0386962890625,-1.1241455078125,-0.16793893129770993,-3.7099236641221376,0.007633587786259542,0.005862712860107422
85,-0.03792681801971208,0.26265679710342965,-0.15267175572519084,-3.763358778625954,0.309814453125,-0.0423583984375,-1.1341552734375,-0.21374045801526717,-3.6946564885496183,0.007633587786259542,0.005187273025512695
86,-0.04485082384751022,0.2667052747271591,-0.12213740458015267,-3.366412213740458,0.303955078125,-0.0438232421875,-1.1185302734375,-0.15267175572519084,-3.801526717557252,0.015267175572519083,0.003927707672119141
85,-0.03552736374980587,0.26482102669007984,-0.08396946564885496,-3.7099236641221376,0.30224609375,-0.0406494140625,-1.1260986328125,-0.21374045801526717,-3.6793893129770994,-0.15267175572519084,0.003922700881958008
84,-0.04039324113131603,0.27068077043453714,-0.15267175572519084,-3.6946564885496183,0.307373046875,-0.0531005859375,-1.1187744140625,-0.15267175572519084,-3.5419847328244276,-0.10687022900763359,0.003920316696166992
85,-0.03745747022497602,0.2675235045138708,-0.13740458015267176,-3.801526717557252,0.30712890625,-0.0465087890625,-1.1173095703125,-0.20610687022900764,-3.5572519083969465,-0.10687022900763359,0.003920316696166992
85,-0.03710823577568945,0.2732814696064938,-0.19083969465648856,-3.5877862595419847,0.30859375,-0.0430908203125,-1.1209716796875,-0.16793893129770993,-3.5267175572519083,0.04580152671755725,0.003920078277587891
85,-0.038212951238528706,0.2649361227030823,-0.04580152671755725,-3.6793893129770994,0.308837890625,-0.0504150390625,-1.1304931640625,-0.1297709923664122,-3.763358778625954,-0.11450381679389313,0.003919363021850586
85,-0.03994794485102127,0.26341446513413197,-0.13740458015267176,-3.786259541984733,0.30908203125,-0.0457763671875,-1.1195068359375,-0.19083969465648856,-3.618320610687023,0.04580152671755725,0.0039179325103759766
85,-0.03889892316378252,0.26993439798859914,-0.0916030534351145,-3.4885496183206106,0.302734375,-0.0450439453125,-1.1170654296875,-0.10687022900763359,-3.648854961832061,0.030534351145038167,0.004264116287231445
86,-0.036959194570055594,0.2705844456459196,-0.09923664122137404,-3.8244274809160306,0.310546875,-0.0465087890625,-1.1224365234375,-0.08396946564885496,-3.6946564885496183,0.05343511450381679,0.0044193267822265625
85,-0.03670267049683627,0.2718684595406753,-0.17557251908396945,-3.66412213740458,0.310546875,-0.0430908203125,-1.1226806640625,-0.12213740458015267,-3.8396946564885495,0.16030534351145037,0.004316806793212891
85,-0.037541707041283255,0.2709469930405164,-0.21374045801526717,-3.5267175572519083,0.30810546875,-0.0469970703125,-1.1236572265625,-0.08396946564885496,-3.687022900763359,-0.05343511450381679,0.003988504409790039
85,-0.0348054229822983,0.2619351995289158,-0.11450381679389313,-3.5572519083969465,0.30908203125,-0.0386962890625,-1.1329345703125,-0.2748091603053435,-3.7251908396946565,-0.015267175572519083,0.003918170928955078
85,-0.03238864525354114,0.26530938561604855,-0.007633587786259542,-3.8473282442748094,0.315673828125,-0.0423583984375,-1.1275634765625,-0.10687022900763359,-3.6717557251908395,-0.007633587786259542,0.003917217254638672
85,-0.03787875237628898,0.2645101815983392,-0.2595419847328244,-3.564885496183206,0.30859375,-0.0406494140625,-1.1280517578125,-0.1984732824427481,-3.5419847328244276,-0.022900763358778626,0.0040285587310791016
85,-0.03674673460919149,0.26692163579863853,-0.04580152671755725,-3.7099236641221376,0.30224609375,-0.0450439453125,-1.1170654296875,-0.08396946564885496,-3.6412213740458017,-0.03816793893129771,0.003940582275390625
85,-0.03457757387085067,0.26706325034085476,0.0,-3.595419847328244,0.30615234375,-0.0421142578125,-1.1268310546875,-0.1297709923664122,-3.7404580152671754,-0.015267175572519083,0.004063129425048828
85,-0.04257002805179154,0.2672979696018826,-0.2366412213740458,-3.6946564885496183,0.3193359375,-0.0450439453125,-1.1265869140625,-0.22137404580152673,-3.3969465648854964,-0.03816793893129771,0.003992557525634766
85,-0.0365375749539109,0.26740874506628504,-0.08396946564885496,-3.618320610687023,0.307373046875,-0.0423583984375,-1.1304931640625,-0.12213740458015267,-3.732824427480916,0.0,0.003917694091796875
86,-0.035008104537246114,0.26816497731727035,-0.15267175572519084,-3.648854961832061,0.304931640625,-0.0447998046875,-1.1292724609375,-0.16030534351145037,-3.6412213740458017,-0.061068702290076333,0.003912210464477539
85,-0.0356000008284092,0.26378158816832786,-0.03816793893129771,-3.6030534351145036,0.30419921875,-0.0406494140625,-1.1204833984375,-0.08396946564885496,-3.595419847328244,0.06870229007633588,0.003921985626220703
85,-0.03621482552473454,0.2643888856712506,-0.0916030534351145,-3.5267175572519083,0.308837890625,-0.0377197265625,-1.1197509765625,-0.1450381679389313,-3.6717557251908395,-0.08396946564885496,0.003919839859008789
85,-0.043856727781268784,0.265316714542523,-0.04580152671755725,-3.9160305343511452,0.30126953125,-0.0469970703125,-1.1221923828125,-0.2748091603053435,-3.877862595419847,0.030534351145038167,0.003918647766113281
85,-0.039534817070122505,0.26845710224086156,-0.07633587786259542,-3.618320610687023,0.3095703125,-0.0445556640625,-1.1224365234375,-0.22137404580152673,-3.6106870229007635,-0.09923664122137404,0.003968715667724609
86,-0.038353729649271966,0.2621022027936277,-0.31297709923664124,-3.900763358778626,0.30810546875,-0.0482177734375,-1.1207275390625,-0.13740458015267176,-3.6793893129770994,-0.05343511450381679,0.004001617431640625
85,-0.03269805028378588,0.269596361630603,-0.11450381679389313,-3.6259541984732824,0.309326171875,-0.0482177734375,-1.1260986328125,-0.05343511450381679,-3.6793893129770994,0.0916030534351145,0.004111528396606445
85,-0.040273702396923815,0.26397495618156763,-0.09923664122137404,-3.633587786259542,0.30859375,-0.0447998046875,-1.1297607421875,0.022900763358778626,-3.7251908396946565,-0.1297709923664122,0.003956794738769531
85,-0.0379544857312247,0.26591812579142476,-0.06870229007633588,-3.786259541984733,0.303955078125,-0.0506591796875,-1.1285400390625,-0.16030534351145037,-3.6412213740458017,-0.007633587786259542,0.003917694091796875
85,-0.04000899751792082,0.2658781026831327,-0.10687022900763359,-3.4732824427480917,0.30615234375,-0.0413818359375,-1.1243896484375,-0.13740458015267176,-3.5267175572519083,-0.030534351145038167,0.003920555114746094
85,-0.03605561113153455,0.26623058045434234,-0.015267175572519083,-3.5572519083969465,0.30615234375,-0.0399169921875,-1.1287841796875,-0.08396946564885496,-3.7022900763358777,0.007633587786259542,0.003921031951904297
85,-0.039522428557998826,0.2688057610124165,-0.07633587786259542,-3.6564885496183206,0.3076171875,-0.0455322265625,-1.1202392578125,-0.06870229007633588,-3.6106870229007635,0.061068702290076333,0.003920078277587891
85,-0.03906274118361923,0.2654838897603042,-0.10687022900763359,-3.687022900763359,0.3046875,-0.0362548828125,-1.1202392578125,-0.08396946564885496,-3.5267175572519083,0.0,0.003974437713623047
85,-0.03148508699519185,0.262585533621482,-0.15267175572519084,-3.633587786259542,0.297119140625,-0.0452880859375,-1.1180419921875,-0.19083969465648856,-3.595419847328244,0.007633587786259542,0.003931760787963867
85,-0.03888915642469207,0.26769098632519905,-0.17557251908396945,-3.7709923664122136,0.306884765625,-0.0421142578125,-1.1275634765625,-0.0916030534351145,-3.7022900763358777,0.030534351145038167,0.003917217254638672
85,-0.03581446751784272,0.2656259139210603,-0.3053435114503817,-3.4427480916030535,0.302490234375,-0.0438232421875,-1.1231689453125,-0.22900763358778625,-3.633587786259542,0.16030534351145037,0.003917217254638672
85,-0.04233848443583508,0.2684548097319464,-0.07633587786259542,-3.519083969465649,0.308349609375,-0.0447998046875,-1.1236572265625,-0.21374045801526717,-3.6030534351145036,-0.1984732824427481,0.003920078277587891
85,-0.040440690012425916,0.2673553249959757,-0.05343511450381679,-3.7557251908396947,0.312744140625,-0.0433349609375,-1.1292724609375,-0.22137404580152673,-3.5877862595419847,-0.08396946564885496,0.00391840934753418
86,-0.03940524242806842,0.2653896691105337,-0.09923664122137404,-3.6717557251908395,0.303955078125,-0.0477294921875,-1.1168212890625,-0.0916030534351145,-3.5114503816793894,-0.06870229007633588,0.004075765609741211
85,-0.04022032283185093,0.2640519236674499,-0.25190839694656486,-3.786259541984733,0.30859375,-0.0447998046875,-1.1219482421875,-0.04580152671755725,-3.6412213740458017,-0.0916030534351145,0.0039598941802978516
85,-0.03750849195502128,0.2681145581391615,0.0,-3.618320610687023,0.3046875,-0.0465087890625,-1.1219482421875,0.007633587786259542,-3.732824427480916,-0.17557251908396945,0.0039250850677490234
85,-0.03894353284688232,0.2641585420008488,-0.0916030534351145,-3.8625954198473282,0.3046875,-0.0443115234375,-1.1180419921875,-0.17557251908396945,-3.549618320610687,-0.12213740458015267,0.00396418571472168
85,-0.037489642898257534,0.2699368321996988,-0.22900763358778625,-3.633587786259542,0.31103515625,-0.0433349609375,-1.1177978515625,-0.2595419847328244,-3.687022900763359,-0.13740458015267176,0.003926277160644531
85,-0.03407666384686506,0.2677311146498818,-0.07633587786259542,-3.572519083969466,0.302490234375,-0.0450439453125,-1.1180419921875,-0.0916030534351145,-3.732824427480916,0.05343511450381679,0.003920555114746094
85,-0.03688134794351036,0.2726533424230775,-0.12213740458015267,-3.6106870229007635,0.308349609375,-0.0433349609375,-1.1134033203125,-0.11450381679389313,-3.450381679389313,0.015267175572519083,0.003921985626220703
85,-0.03902684023358871,0.26805344371415185,-0.16030534351145037,-3.564885496183206,0.3056640625,-0.0413818359375,-1.1260986328125,-0.1984732824427481,-3.7786259541984735,0.13740458015267176,0.003918886184692383
85,-0.03572759492432337,0.2673549755226376,-0.05343511450381679,-3.519083969465649,0.3154296875,-0.0455322265625,-1.1248779296875,-0.1450381679389313,-3.6030534351145036,-0.07633587786259542,0.00391697883605957
85,-0.042286680881697666,0.26660327360315994,-0.08396946564885496,-3.854961832061069,0.305908203125,-0.0482177734375,-1.1239013671875,-0.15267175572519084,-3.7099236641221376,0.030534351145038167,0.003917694091796875
85,-0.037486294051791366,0.26923741650775723,-0.022900763358778626,-3.6412213740458017,0.311279296875,-0.0406494140625,-1.1256103515625,-0.007633587786259542,-3.7557251908396947,-0.08396946564885496,0.0039196014404296875
85,-0.04116922659990839,0.26816096900408626,0.04580152671755725,-3.49618320610687,0.310546875,-0.0489501953125,-1.1278076171875,-0.19083969465648856,-3.687022900763359,-0.09923664122137404,0.003918170928955078
85,-0.03268782939103791,0.26994334804106335,-0.08396946564885496,-3.450381679389313,0.304931640625,-0.0418701171875,-1.1253662109375,-0.12213740458015267,-3.49618320610687,0.007633587786259542,0.0039174556732177734
85,-0.039938698247236455,0.27139285988874795,-0.015267175572519083,-3.7251908396946565,0.309814453125,-0.0460205078125,-1.1153564453125,-0.09923664122137404,-3.549618320610687,0.0,0.004004240036010742
85,-0.039724367380051286,0.2696843886499693,-0.17557251908396945,-3.6717557251908395,0.30859375,-0.0433349609375,-1.1217041015625,-0.07633587786259542,-3.8091603053435112,-0.015267175572519083,0.004151821136474609
85,-0.037860246011069326,0.2607068252481477,-0.022900763358778626,-3.786259541984733,0.30078125,-0.0413818359375,-1.1265869140625,-0.09923664122137404,-3.7786259541984735,0.007633587786259542,0.004364490509033203
85,-0.038844828520921096,0.2725918673272798,-0.16030534351145037,-3.7099236641221376,0.3017578125,-0.0428466796875,-1.1231689453125,-0.007633587786259542,-3.5343511450381677,-0.16793893129770993,0.004294395446777344
85,-0.03673207655732281,0.26698959846271214,-0.11450381679389313,-3.732824427480916,0.311767578125,-0.0450439453125,-1.1219482421875,-0.2595419847328244,-3.6564885496183206,-0.15267175572519084,0.003991603851318359
86,-0.03713840800655616,0.2695786305355202,-0.13740458015267176,-3.5877862595419847,0.312255859375,-0.0443115234375,-1.1329345703125,-0.015267175572519083,-3.7709923664122136,-0.030534351145038167,0.0039310455322265625
85,-0.04177795260448672,0.2658580208194599,-0.25190839694656486,-3.618320610687023,0.30322265625,-0.0474853515625,-1.1236572265625,-0.16030534351145037,-3.4885496183206106,0.007633587786259542,0.003915071487426758
85,-0.03756701460677767,0.26156625433848857,-0.1450381679389313,-3.6259541984732824,0.2998046875,-0.0474853515625,-1.1204833984375,-0.1450381679389313,-3.5114503816793894,0.007633587786259542,0.003923177719116211
85,-0.03697018619239623,0.2655055313545112,-0.12213740458015267,-3.6717557251908395,0.30810546875,-0.0489501953125,-1.1307373046875,-0.1450381679389313,-3.5267175572519083,0.0,0.0039215087890625
85,-0.04172861827200316,0.2702206082726041,-0.16030534351145037,-3.6946564885496183,0.30859375,-0.0511474609375,-1.1192626953125,-0.09923664122137404,-3.6564885496183206,-0.03816793893129771,0.0039370059967041016
85,-0.04065419611483024,0.2625355964212983,-0.183206106870229,-3.732824427480916,0.305419921875,-0.0496826171875,-1.1231689453125,-0.1297709923664122,-3.7404580152671754,-0.015267175572519083,0.003920078277587891
85,-0.04040833556161849,0.2698652491889051,-0.07633587786259542,-3.6106870229007635,0.3076171875,-0.0416259765625,-1.1236572265625,-0.030534351145038167,-3.5572519083969465,-0.06870229007633588,0.003919839859008789
85,-0.04049207342204542,0.266425019753727,-0.16030534351145037,-3.648854961832061,0.305908203125,-0.0435791015625,-1.1197509765625,-0.07633587786259542,-3.732824427480916,0.04580152671755725,0.0039331912994384766
85,-0.03576869171204967,0.26391053877027293,-0.022900763358778626,-3.5267175572519083,0.3056640625,-0.0430908203125,-1.1248779296875,0.030534351145038167,-3.5877862595419847,0.0,0.00394439697265625
85,-0.036061973542095956,0.26238113581743505,-0.19083969465648856,-3.6717557251908395,0.308837890625,-0.0408935546875,-1.1290283203125,-0.15267175572519084,-3.8931297709923665,-0.22900763358778625,0.0039520263671875
85,-0.04043487572760867,0.26970192151987576,-0.20610687022900764,-3.4885496183206106,0.305908203125,-0.0489501953125,-1.1260986328125,-0.16030534351145037,-3.8396946564885495,0.022900763358778626,0.003930568695068359
85,-0.04053624306969373,0.26704740094194473,-0.061068702290076333,-3.7251908396946565,0.304931640625,-0.0474853515625,-1.1146240234375,-0.030534351145038167,-3.6946564885496183,-0.1450381679389313,0.003960847854614258
85,-0.03768171537436871,0.26610446884828093,-0.22900763358778625,-3.618320610687023,0.3076171875,-0.0433349609375,-1.1256103515625,-0.20610687022900764,-3.6259541984732824,-0.022900763358778626,0.00392603874206543
85,-0.03707503410017119,0.26627644314908644,-0.07633587786259542,-3.5572519083969465,0.307373046875,-0.0418701171875,-1.1248779296875,-0.10687022900763359,-3.572519083969466,-0.061068702290076333,0.0039196014404296875
85,-0.040416465202651526,0.269920870331476,-0.12213740458015267,-3.6412213740458017,0.308349609375,-0.0399169921875,-1.1270751953125,-0.15267175572519084,-3.618320610687023,0.04580152671755725,0.003919363021850586
85,-0.039873250775668986,0.2678979719635741,-0.16793893129770993,-3.6030534351145036,0.309814453125,-0.0435791015625,-1.1239013671875,-0.061068702290076333,-3.6259541984732824,-0.08396946564885496,0.003919839859008789
85,-0.039127717803516204,0.2675629930009356,-0.09923664122137404,-3.5801526717557253,0.311279296875,-0.0440673828125,-1.1297607421875,-0.17557251908396945,-3.6259541984732824,-0.007633587786259542,0.003919363021850586
85,-0.04205407602018269,0.26245388171022105,-0.2900763358778626,-3.5572519083969465,0.31103515625,-0.0418701171875,-1.1197509765625,-0.29770992366412213,-3.6259541984732824,-0.03816793893129771,0.0039174556732177734
85,-0.0355722571670756,0.26973226256331306,-0.0916030534351145,-3.648854961832061,0.30859375,-0.0413818359375,-1.1199951171875,-0.1984732824427481,-3.6259541984732824,-0.007633587786259542,0.0039196014404296875
85,-0.035659735355205925,0.2671393679583112,-0.16793893129770993,-3.7404580152671754,0.30859375,-0.0428466796875,-1.1282958984375,-0.16030534351145037,-3.6793893129770994,-0.015267175572519083,0.0039174556732177734
85,-0.0336886995594957,0.2693457997884856,-0.17557251908396945,-3.66412213740458,0.30859375,-0.0467529296875,-1.1207275390625,-0.19083969465648856,-3.6793893129770994,0.16030534351145037,0.0039179325103759766
85,-0.042329078180687034,0.26926075044537606,-0.06870229007633588,-3.7022900763358777,0.3115234375,-0.0440673828125,-1.1297607421875,-0.3053435114503817,-3.687022900763359,-0.03816793893129771,0.004067420959472656
85,-0.03794463909649637,0.2684478754228275,-0.04580152671755725,-3.877862595419847,0.30810546875,-0.0438232421875,-1.1234130859375,-0.16793893129770993,-3.648854961832061,-0.04580152671755725,0.003942966461181641
85,-0.04067139006559149,0.2723198834985859,-0.22137404580152673,-3.7022900763358777,0.312744140625,-0.0433349609375,-1.1265869140625,-0.007633587786259542,-3.7022900763358777,-0.16030534351145037,0.003981351852416992
86,-0.03986311331863444,0.27195231095913175,-0.0916030534351145,-3.549618320610687,0.31396484375,-0.0428466796875,-1.1231689453125,-0.12213740458015267,-3.5343511450381677,0.022900763358778626,0.003975868225097656
85,-0.039045519780361165,0.2670996765280269,-0.0916030534351145,-3.6717557251908395,0.31201171875,-0.0467529296875,-1.1158447265625,-0.21374045801526717,-3.6259541984732824,-0.03816793893129771,0.003917694091796875
85,-0.04168117878292294,0.26790220988429514,-0.03816793893129771,-3.5419847328244276,0.306396484375,-0.0526123046875,-1.1224365234375,-0.2824427480916031,-3.633587786259542,-0.05343511450381679,0.003923177719116211
85,-0.033956103727009336,0.26632529061795246,-0.183206106870229,-3.519083969465649,0.3046875,-0.0452880859375,-1.1160888671875,-0.13740458015267176,-3.648854961832061,-0.26717557251908397,0.0039174556732177734
86,-0.03425358577716122,0.2675801379059546,-0.183206106870229,-3.7709923664122136,0.3125,-0.0469970703125,-1.1275634765625,-0.12213740458015267,-3.717557251908397,-0.030534351145038167,0.003912687301635742
85,-0.038568098354219885,0.26715213967103146,-0.15267175572519084,-3.549618320610687,0.3076171875,-0.0399169921875,-1.1251220703125,-0.19083969465648856,-3.648854961832061,-0.061068702290076333,0.003919839859008789
85,-0.03839688933732592,0.26435396509450065,-0.1450381679389313,-3.5343511450381677,0.30810546875,-0.0469970703125,-1.1217041015625,-0.183206106870229,-3.6946564885496183,0.12213740458015267,0.003918886184692383
85,-0.039940713672002,0.26488563326819314,-0.21374045801526717,-3.7557251908396947,0.30859375,-0.0467529296875,-1.1280517578125,-0.1297709923664122,-3.564885496183206,-0.030534351145038167,0.003917217254638672
85,-0.03979077579261704,0.26754705715988397,-0.24427480916030533,-3.648854961832061,0.30615234375,-0.0457763671875,-1.1253662109375,-0.16793893129770993,-3.6259541984732824,-0.08396946564885496,0.003917217254638672
85,-0.0389006515886262,0.27192542916294155,-0.007633587786259542,-3.7251908396946565,0.306640625,-0.0430908203125,-1.1190185546875,-0.007633587786259542,-3.633587786259542,-0.07633587786259542,0.003916501998901367
86,-0.03892781379673186,0.2729550120378104,-0.06870229007633588,-3.50381679389313,0.308349609375,-0.0416259765625,-1.1234130859375,-0.1297709923664122,-3.633587786259542,-0.12213740458015267,0.003932952880859375
85,-0.038679461659855634,0.2644849231098935,-0.09923664122137404,-3.6030534351145036,0.302734375,-0.0426025390625,-1.1185302734375,-0.04580152671755725,-3.5267175572519083,-0.09923664122137404,0.003916501998901367
85,-0.03956018054731226,0.269286417375512,0.007633587786259542,-3.618320610687023,0.306640625,-0.0433349609375,-1.1275634765625,-0.12213740458015267,-3.7709923664122136,0.06870229007633588,0.004063844680786133
85,-0.04355941141876384,0.26456010194928714,-0.1297709923664122,-3.4580152671755724,0.308837890625,-0.0418701171875,-1.1168212890625,-0.13740458015267176,-3.66412213740458,0.183206106870229,0.00394749641418457
85,-0.03764892315018759,0.26500720017857415,-0.1297709923664122,-3.6793893129770994,0.30322265625,-0.0386962890625,-1.1275634765625,-0.25190839694656486,-3.564885496183206,0.030534351145038167,0.003921985626220703
86,-0.03759455522031769,0.2639683333016316,-0.0916030534351145,-3.6259541984732824,0.30859375,-0.0401611328125,-1.1258544921875,0.015267175572519083,-3.595419847328244,-0.10687022900763359,0.003918647766113281
85,-0.034636442397303346,0.2737043028318904,-0.022900763358778626,-3.564885496183206,0.308349609375,-0.0484619140625,-1.1131591796875,-0.183206106870229,-3.7938931297709924,0.05343511450381679,0.003918170928955078
85,-0.036521419827965106,0.26663312510725035,-0.16030534351145037,-3.5877862595419847,0.29833984375,-0.0428466796875,-1.1302490234375,-0.25190839694656486,-3.5801526717557253,-0.10687022900763359,0.003922462463378906
85,-0.03243229601881618,0.2727931875531432,-0.061068702290076333,-3.6564885496183206,0.312255859375,-0.0421142578125,-1.1246337890625,-0.0916030534351145,-3.7786259541984735,0.09923664122137404,0.003920316696166992
85,-0.038090215450973464,0.26606333336683935,-0.11450381679389313,-3.763358778625954,0.314697265625,-0.0401611328125,-1.1263427734375,-0.1297709923664122,-3.519083969465649,-0.13740458015267176,0.0039215087890625
85,-0.037686366367303346,0.2642105126508715,-0.05343511450381679,-3.4198473282442747,0.306884765625,-0.0465087890625,-1.1212158203125,-0.022900763358778626,-3.5343511450381677,0.1450381679389313,0.003919363021850586
85,-0.0398649235416984,0.2702278500478977,-0.2748091603053435,-3.66412213740458,0.310791015625,-0.0472412109375,-1.1265869140625,-0.15267175572519084,-3.6030534351145036,-0.10687022900763359,0.0039174556732177734
85,-0.0410463678919966,0.2679911347730886,-0.10687022900763359,-3.7938931297709924,0.31201171875,-0.0467529296875,-1.1290283203125,-0.19083969465648856,-3.732824427480916,-0.04580152671755725,0.003918886184692383
85,-0.04004391550726026,0.26980103939447553,-0.09923664122137404,-3.6412213740458017,0.308349609375,-0.0433349609375,-1.1217041015625,-0.15267175572519084,-3.83206106870229,-0.04580152671755725,0.0039484500885009766
85,-0.04283860204066262,0.2681519690396891,-0.11450381679389313,-3.7099236641221376,0.307373046875,-0.0450439453125,-1.1209716796875,-0.10687022900763359,-3.7557251908396947,-0.11450381679389313,0.003922462463378906
85,-0.04285185699083404,0.26858859732897317,0.007633587786259542,-3.4656488549618323,0.30615234375,-0.0457763671875,-1.1143798828125,0.007633587786259542,-3.6259541984732824,-0.03816793893129771,0.003928422927856445
85,-0.03532567959574918,0.2640138500698228,-0.16030534351145037,-3.6030534351145036,0.306884765625,-0.0404052734375,-1.1192626953125,-0.08396946564885496,-3.816793893129771,0.05343511450381679,0.003918170928955078
85,-0.038824986567213345,0.2665878865985276,-0.06870229007633588,-3.5877862595419847,0.30908203125,-0.0438232421875,-1.1319580078125,0.03816793893129771,-3.6946564885496183,0.007633587786259542,0.003916501998901367
85,-0.039420974791024674,0.2631155591930617,-0.2595419847328244,-3.732824427480916,0.3076171875,-0.0355224609375,-1.1248779296875,-0.1984732824427481,-3.7022900763358777,-0.3282442748091603,0.003916263580322266
85,-0.03573002742881628,0.2694483852450302,-0.16030534351145037,-3.6259541984732824,0.311767578125,-0.0386962890625,-1.1190185546875,-0.22137404580152673,-3.6717557251908395,-0.11450381679389313,0.003918647766113281
85,-0.03816268968740488,0.2667777032917225,-0.19083969465648856,-3.7709923664122136,0.308837890625,-0.0511474609375,-1.1292724609375,-0.04580152671755725,-3.7099236641221376,-0.04580152671755725,0.004475831985473633
85,-0.0404167252840754,0.2675401723708553,-0.061068702290076333,-3.519083969465649,0.30517578125,-0.0462646484375,-1.1241455078125,-0.13740458015267176,-3.564885496183206,-0.09923664122137404,0.003920078277587891
85,-0.03561379271974467,0.2663977615288649,-0.15267175572519084,-3.595419847328244,0.306396484375,-0.0491943359375,-1.1253662109375,-0.11450381679389313,-3.633587786259542,-0.15267175572519084,0.0039215087890625
85,-0.036111438554524304,0.2671543134797174,-0.2900763358778626,-3.854961832061069,0.306640625,-0.0433349609375,-1.1234130859375,-0.15267175572519084,-3.801526717557252,-0.05343511450381679,0.003918886184692383
85,-0.03860212921753685,0.26553887256208075,-0.19083969465648856,-3.5343511450381677,0.30810546875,-0.0426025390625,-1.1278076171875,-0.11450381679389313,-3.5419847328244276,0.10687022900763359,0.003917694091796875
85,-0.039482076655367106,0.26344553768253465,-0.04580152671755725,-3.6564885496183206,0.30908203125,-0.0452880859375,-1.1275634765625,-0.05343511450381679,-3.6030534351145036,-0.022900763358778626,0.00391697883605957
85,-0.034363442193538436,0.2692700568750709,-0.061068702290076333,-3.7022900763358777,0.30859375,-0.0404052734375,-1.1236572265625,-0.030534351145038167,-3.50381679389313,0.10687022900763359,0.004063129425048828
85,-0.03702601755814917,0.2710857737717103,0.030534351145038167,-3.687022900763359,0.30517578125,-0.0408935546875,-1.1300048828125,-0.21374045801526717,-3.687022900763359,-0.08396946564885496,0.003947257995605469
85,-0.03613598448635392,0.2665579562509126,-0.007633587786259542,-3.6793893129770994,0.313720703125,-0.0447998046875,-1.1224365234375,-0.022900763358778626,-3.66412213740458,-0.1297709923664122,0.004101753234863281
85,-0.03956256438953544,0.26669191496932426,-0.16030534351145037,-3.5114503816793894,0.31201171875,-0.0413818359375,-1.1229248046875,-0.08396946564885496,-3.66412213740458,-0.16030534351145037,0.0039217472076416016
85,-0.037113058735864464,0.2703939680354913,-0.07633587786259542,-3.763358778625954,0.307861328125,-0.0462646484375,-1.1221923828125,-0.17557251908396945,-3.6946564885496183,-0.022900763358778626,0.003919839859008789
85,-0.03286165383492388,0.2698645163303969,-0.16793893129770993,-3.572519083969466,0.30810546875,-0.0450439453125,-1.1180419921875,-0.2824427480916031,-3.5572519083969465,-0.06870229007633588,0.003919363021850586
85,-0.04124376391727777,0.26661517660407935,-0.030534351145038167,-3.6259541984732824,0.30322265625,-0.0455322265625,-1.1307373046875,-0.05343511450381679,-3.3969465648854964,0.0,0.003917217254638672
85,-0.03937204762160099,0.2668922679463147,-0.030534351145038167,-3.5877862595419847,0.314453125,-0.0450439453125,-1.1214599609375,-0.10687022900763359,-3.9389312977099236,-0.1450381679389313,0.003939151763916016
85,-0.04454239215243432,0.2641799273944852,-0.1984732824427481,-3.6717557251908395,0.3037109375,-0.0457763671875,-1.1175537109375,-0.09923664122137404,-3.6717557251908395,0.13740458015267176,0.003918886184692383
84,-0.03638992206759845,0.2666840472238531,-0.03816793893129771,-3.595419847328244,0.31005859375,-0.0447998046875,-1.1231689453125,-0.21374045801526717,-3.6106870229007635,0.03816793893129771,0.00391840934753418
85,-0.0370975030726764,0.2640464089906871,-0.183206106870229,-3.549618320610687,0.307861328125,-0.0399169921875,-1.1199951171875,-0.061068702290076333,-3.687022900763359,-0.022900763358778626,0.003917694091796875
85,-0.03632514696467015,0.26761389764880594,-0.09923664122137404,-3.50381679389313,0.306640625,-0.0452880859375,-1.1129150390625,-0.0916030534351145,-3.4885496183206106,-0.24427480916030533,0.003917217254638672
85,-0.03666743534594469,0.26506460066659937,-0.03816793893129771,-3.618320610687023,0.304443359375,-0.0455322265625,-1.1236572265625,-0.16030534351145037,-3.4656488549618323,-0.16030534351145037,0.003917694091796875
86,-0.037047491002276486,0.26977339985625093,-0.25190839694656486,-3.595419847328244,0.309814453125,-0.0426025390625,-1.1138916015625,-0.16030534351145037,-3.7251908396946565,0.0,0.0039179325103759766
85,-0.03818094136485661,0.2699482987546016,-0.007633587786259542,-3.633587786259542,0.311279296875,-0.0440673828125,-1.1295166015625,-0.10687022900763359,-3.4732824427480917,-0.04580152671755725,0.003952980041503906
85,-0.03721921866264178,0.2670778520308099,-0.13740458015267176,-3.7251908396946565,0.310546875,-0.0452880859375,-1.1270751953125,-0.1297709923664122,-3.6030534351145036,0.015267175572519083,0.003933429718017578
85,-0.03689618068492452,0.26817154047618674,-0.183206106870229,-3.5419847328244276,0.30712890625,-0.0433349609375,-1.1273193359375,-0.11450381679389313,-3.6030534351145036,-0.015267175572519083,0.003919363021850586
85,-0.0373584664614251,0.26355257434175783,-0.183206106870229,-3.6412213740458017,0.304931640625,-0.0399169921875,-1.1256103515625,-0.2824427480916031,-3.7786259541984735,-0.05343511450381679,0.0039212703704833984
85,-0.036464532290650616,0.2678938498729468,-0.32061068702290074,-3.732824427480916,0.302978515625,-0.0472412109375,-1.1275634765625,-0.21374045801526717,-3.6717557251908395,0.06870229007633588,0.003919363021850586
85,-0.03844969065933878,0.2688522001334646,-0.030534351145038167,-3.7709923664122136,0.305419921875,-0.0411376953125,-1.1343994140625,-0.030534351145038167,-3.648854961832061,-0.0916030534351145,0.003918170928955078
85,-0.039847957309783875,0.27397265169888807,-0.1984732824427481,-3.7786259541984735,0.3095703125,-0.0411376953125,-1.1304931640625,-0.1297709923664122,-3.519083969465649,0.007633587786259542,0.003917694091796875
85,-0.03778417581391962,0.26294636037659497,-0.0916030534351145,-3.7251908396946565,0.310791015625,-0.0467529296875,-1.1243896484375,-0.1450381679389313,-3.66412213740458,-0.12213740458015267,0.003917217254638672
85,-0.03712542055581888,0.2692276335322894,-0.12213740458015267,-3.6946564885496183,0.30908203125,-0.0423583984375,-1.1202392578125,-0.06870229007633588,-3.5572519083969465,-0.06870229007633588,0.003917217254638672
85,-0.03665977009655919,0.26979898625443344,-0.20610687022900764,-3.4885496183206106,0.30322265625,-0.0396728515625,-1.1190185546875,-0.1297709923664122,-3.5801526717557253,-0.19083969465648856,0.003916501998901367
85,-0.03949605751618192,0.26760179524185856,-0.16793893129770993,-3.877862595419847,0.308349609375,-0.0472412109375,-1.1209716796875,-0.29770992366412213,-3.6030534351145036,0.015267175572519083,0.003916501998901367
85,-0.03867763521087297,0.26550585830366796,-0.21374045801526717,-3.7251908396946565,0.30517578125,-0.0430908203125,-1.1314697265625,-0.2366412213740458,-3.801526717557252,-0.17557251908396945,0.00391697883605957
86,-0.03836873748388603,0.26454898215807926,-0.08396946564885496,-3.6793893129770994,0.30419921875,-0.0430908203125,-1.1207275390625,-0.09923664122137404,-3.427480916030534,-0.24427480916030533,0.004145622253417969
86,-0.03744805451561025,0.26744191682850027,0.007633587786259542,-3.5877862595419847,0.304931640625,-0.0428466796875,-1.1280517578125,-0.24427480916030533,-3.6793893129770994,-0.183206106870229,0.003926515579223633
85,-0.037948155464406955,0.26413998767756713,-0.11450381679389313,-3.786259541984733,0.30908203125,-0.0460205078125,-1.1229248046875,-0.09923664122137404,-3.7557251908396947,-0.1297709923664122,0.0039212703704833984
85,-0.04017715219915428,0.26798083961151703,-0.061068702290076333,-3.6030534351145036,0.3056640625,-0.0421142578125,-1.1302490234375,-0.21374045801526717,-3.564885496183206,-0.007633587786259542,0.003921985626220703
85,-0.03680326644358551,0.26622277920174225,-0.022900763358778626,-3.519083969465649,0.306396484375,-0.0479736328125,-1.1280517578125,-0.19083969465648856,-3.7022900763358777,-0.022900763358778626,0.003920316696166992
85,-0.038429706100269655,0.2676486903519978,-0.22900763358778625,-3.786259541984733,0.305419921875,-0.0418701171875,-1.1212158203125,-0.1450381679389313,-3.687022900763359,0.03816793893129771,0.003919124603271484
85,-0.03677963558202031,0.26282432851913823,-0.10687022900763359,-3.5419847328244276,0.30517578125,-0.0428466796875,-1.1309814453125,-0.07633587786259542,-3.5877862595419847,0.007633587786259542,0.003919363021850586
85,-0.03581914867391791,0.2642915706499662,-0.21374045801526717,-3.7099236641221376,0.307373046875,-0.0433349609375,-1.1224365234375,-0.15267175572519084,-3.519083969465649,-0.16793893129770993,0.003911733627319336
85,-0.03651959301328352,0.2741718964632149,-0.22900763358778625,-3.5267175572519083,0.309326171875,-0.0408935546875,-1.1217041015625,-0.22900763358778625,-3.6717557251908395,-0.030534351145038167,0.003919839859008789
85,-0.03593696819390648,0.2649643676749531,-0.16793893129770993,-3.732824427480916,0.302978515625,-0.0408935546875,-1.1260986328125,-0.16793893129770993,-3.6259541984732824,-0.022900763358778626,0.003919124603271484
85,-0.03604872736785161,0.2706385194213152,-0.0916030534351145,-3.595419847328244,0.303955078125,-0.0455322265625,-1.1219482421875,-0.11450381679389313,-3.6412213740458017,0.007633587786259542,0.00391697883605957
85,-0.04147544644189158,0.26135525607460186,-0.16030534351145037,-3.50381679389313,0.301513671875,-0.0423583984375,-1.1275634765625,-0.183206106870229,-3.5801526717557253,-0.05343511450381679,0.0039179325103759766
85,-0.035790081480297435,0.26652834024034244,-0.10687022900763359,-3.7557251908396947,0.30810546875,-0.0430908203125,-1.1204833984375,-0.05343511450381679,-3.66412213740458,-0.16793893129770993,0.00391840934753418
85,-0.04249827345470978,0.26579420918796565,-0.07633587786259542,-3.6259541984732824,0.306396484375,-0.0430908203125,-1.1234130859375,-0.16030534351145037,-3.50381679389313,-0.09923664122137404,0.0041675567626953125
85,-0.041619802408673724,0.26997898847347396,-0.20610687022900764,-3.633587786259542,0.30419921875,-0.0440673828125,-1.1234130859375,-0.13740458015267176,-3.6259541984732824,0.061068702290076333,0.003935813903808594
85,-0.03508147011916146,0.26406123868415377,-0.08396946564885496,-3.6946564885496183,0.30615234375,-0.0494384765625,-1.1243896484375,0.022900763358778626,-3.6412213740458017,0.05343511450381679,0.0039196014404296875
85,-0.041036143554440706,0.26693342719082486,-0.19083969465648856,-3.687022900763359,0.306396484375,-0.0474853515625,-1.1273193359375,-0.12213740458015267,-3.5801526717557253,0.11450381679389313,0.003918170928955078
85,-0.03923157495963091,0.2683508276292588,-0.022900763358778626,-3.732824427480916,0.308349609375,-0.0418701171875,-1.1180419921875,-0.06870229007633588,-3.7786259541984735,-0.06870229007633588,0.00391840934753418
85,-0.04493356607388229,0.26633658085406314,-0.12213740458015267,-3.763358778625954,0.308837890625,-0.0364990234375,-1.1214599609375,-0.022900763358778626,-3.763358778625954,-0.061068702290076333,0.003917217254638672
85,-0.037175214351141975,0.2611234647952788,0.015267175572519083,-3.6946564885496183,0.310302734375,-0.0457763671875,-1.1158447265625,-0.1450381679389313,-3.816793893129771,0.0916030534351145,0.00391840934753418
86,-0.03907766134200077,0.268845489958975,-0.16030534351145037,-3.6717557251908395,0.315185546875,-0.0418701171875,-1.1246337890625,-0.05343511450381679,-3.618320610687023,0.09923664122137404,0.003935575485229492
85,-0.035319206850874064,0.26787394640448325,-0.1297709923664122,-3.572519083969466,0.304443359375,-0.0438232421875,-1.1260986328125,-0.11450381679389313,-3.7404580152671754,0.007633587786259542,0.004058122634887695
85,-0.04064154688535943,0.2704971816841944,-0.10687022900763359,-3.801526717557252,0.306884765625,-0.0455322265625,-1.1182861328125,-0.16793893129770993,-3.6259541984732824,0.015267175572519083,0.003935337066650391
85,-0.03527524002203847,0.2663469855127519,-0.366412213740458,-3.6793893129770994,0.310302734375,-0.0494384765625,-1.1241455078125,-0.07633587786259542,-3.6030534351145036,-0.15267175572519084,0.0039212703704833984
85,-0.038691726383449615,0.2608997918842152,-0.09923664122137404,-3.687022900763359,0.307373046875,-0.0460205078125,-1.1295166015625,-0.07633587786259542,-3.6946564885496183,-0.06870229007633588,0.003918647766113281
85,-0.0380682372810833,0.26608204670712465,0.022900763358778626,-3.49618320610687,0.306396484375,-0.0433349609375,-1.1234130859375,0.015267175572519083,-3.66412213740458,-0.061068702290076333,0.003917694091796875
85,-0.04155656704790139,0.26534663967192784,-0.1450381679389313,-3.8396946564885495,0.30126953125,-0.0465087890625,-1.1219482421875,-0.183206106870229,-3.618320610687023,-0.25190839694656486,0.003916263580322266
85,-0.037570671699444,0.2692246280936559,-0.09923664122137404,-3.6793893129770994,0.3095703125,-0.0401611328125,-1.1224365234375,-0.05343511450381679,-3.7404580152671754,-0.05343511450381679,0.004093647003173828
85,-0.03580442449167642,0.26903256650975815,-0.12213740458015267,-3.6412213740458017,0.304931640625,-0.0457763671875,-1.1231689453125,-0.22137404580152673,-3.6717557251908395,0.1297709923664122,0.003919124603271484
86,-0.04035204807741372,0.2687409330006848,0.015267175572519083,-3.6412213740458017,0.310791015625,-0.0443115234375,-1.1209716796875,-0.1450381679389313,-3.6030534351145036,-0.13740458015267176,0.0039174556732177734
85,-0.03730343329281278,0.26684546892690403,-0.183206106870229,-3.595419847328244,0.3076171875,-0.0443115234375,-1.1285400390625,-0.0916030534351145,-3.7786259541984735,-0.13740458015267176,0.0039179325103759766
85,-0.038423047584303135,0.26973349351587,-0.1297709923664122,-3.648854961832061,0.310302734375,-0.0438232421875,-1.1231689453125,-0.183206106870229,-3.5343511450381677,0.04580152671755725,0.003916740417480469
85,-0.0399495668603429,0.26893353064607783,0.007633587786259542,-3.6793893129770994,0.306884765625,-0.0426025390625,-1.1253662109375,-0.21374045801526717,-3.6946564885496183,-0.10687022900763359,0.00391697883605957
85,-0.03659889918692594,0.2710807158029542,-0.22900763358778625,-3.5877862595419847,0.311279296875,-0.0440673828125,-1.1214599609375,-0.16793893129770993,-3.6793893129770994,0.061068702290076333,0.003916501998901367
85,-0.042509075629517036,0.2630113201743307,-0.22137404580152673,-3.6259541984732824,0.30810546875,-0.0457763671875,-1.1226806640625,-0.1450381679389313,-3.7404580152671754,-0.16793893129770993,0.00391697883605957
85,-0.03897971648380302,0.265339359454317,-0.061068702290076333,-3.5267175572519083,0.31298828125,-0.0435791015625,-1.1278076171875,-0.022900763358778626,-3.564885496183206,0.007633587786259542,0.003916501998901367
85,-0.03547131769567554,0.26504374856747526,-0.13740458015267176,-3.50381679389313,0.31201171875,-0.0474853515625,-1.1270751953125,-0.11450381679389313,-3.5267175572519083,0.07633587786259542,0.003916501998901367
85,-0.040466858818631435,0.2660379026795647,-0.09923664122137404,-3.6946564885496183,0.31591796875,-0.0440673828125,-1.1195068359375,-0.0916030534351145,-3.7251908396946565,0.030534351145038167,0.003916263580322266
85,-0.043189697189229215,0.25774020949999366,-0.07633587786259542,-3.33587786259542,0.30517578125,-0.0416259765625,-1.1258544921875,-0.030534351145038167,-3.519083969465649,-0.04580152671755725,0.003917217254638672
85,-0.03520984316925954,0.2681076436890323,-0.1297709923664122,-3.6717557251908395,0.31396484375,-0.0469970703125,-1.1231689453125,-0.19083969465648856,-3.6412213740458017,-0.007633587786259542,0.004020214080810547
85,-0.0414196251191362,0.26451958897938255,-0.12213740458015267,-3.7099236641221376,0.3076171875,-0.0418701171875,-1.1182861328125,-0.08396946564885496,-3.717557251908397,-0.11450381679389313,0.003924131393432617
85,-0.038370854078737575,0.26763722162032744,-0.12213740458015267,-3.595419847328244,0.30712890625,-0.0389404296875,-1.1312255859375,-0.1450381679389313,-3.66412213740458,-0.21374045801526717,0.003919839859008789
86,-0.03864175741137524,0.2704649077188046,-0.12213740458015267,-3.572519083969466,0.308837890625,-0.0491943359375,-1.1239013671875,-0.17557251908396945,-3.5343511450381677,-0.09923664122137404,0.003917694091796875
84,-0.04210801381715637,0.26874937449969044,-0.10687022900763359,-3.595419847328244,0.31494140625,-0.0535888671875,-1.1239013671875,-0.10687022900763359,-3.7251908396946565,-0.12213740458015267,0.003917217254638672
85,-0.03679047325110306,0.2721811073260312,-0.22900763358778625,-3.6030534351145036,0.30712890625,-0.0465087890625,-1.1207275390625,-0.015267175572519083,-3.5877862595419847,0.1450381679389313,0.003916740417480469
85,-0.04097193764706956,0.26867831534241604,-0.2366412213740458,-3.6106870229007635,0.3095703125,-0.0433349609375,-1.1224365234375,-0.12213740458015267,-3.7557251908396947,-0.08396946564885496,0.003947019577026367
85,-0.03888652403797753,0.2605887789888204,0.007633587786259542,-3.49618320610687,0.29833984375,-0.0399169921875,-1.1217041015625,-0.17557251908396945,-3.6259541984732824,-0.05343511450381679,0.0039179325103759766
85,-0.037131663290348345,0.2686557497264488,-0.22900763358778625,-3.7099236641221376,0.3134765625,-0.0433349609375,-1.1177978515625,-0.15267175572519084,-3.786259541984733,0.03816793893129771,0.003930568695068359
85,-0.0356456055955795,0.2630449409322512,-0.03816793893129771,-3.595419847328244,0.30078125,-0.0372314453125,-1.1214599609375,-0.022900763358778626,-3.8396946564885495,-0.08396946564885496,0.003920078277587891
85,-0.03557899480305458,0.26989443425630893,-0.3282442748091603,-3.5419847328244276,0.303466796875,-0.0477294921875,-1.1226806640625,-0.16030534351145037,-3.732824427480916,0.0,0.003946542739868164
85,-0.04229549095311562,0.2672563687269817,-0.16793893129770993,-3.687022900763359,0.3046875,-0.0435791015625,-1.1229248046875,-0.1450381679389313,-3.6412213740458017,-0.07633587786259542,0.003924369812011719
85,-0.04074131113254741,0.26950643175597166,-0.1297709923664122,-3.8396946564885495,0.311767578125,-0.0438232421875,-1.1302490234375,-0.11450381679389313,-3.5267175572519083,-0.03816793893129771,0.0039446353912353516
85,-0.040838515174872886,0.2671327122829712,-0.25190839694656486,-3.8473282442748094,0.310791015625,-0.0443115234375,-1.1109619140625,-0.22137404580152673,-3.732824427480916,0.07633587786259542,0.0041942596435546875
86,-0.038234230768860865,0.2664455186523618,-0.17557251908396945,-3.633587786259542,0.306396484375,-0.0482177734375,-1.1351318359375,-0.09923664122137404,-3.564885496183206,0.03816793893129771,0.003976583480834961
85,-0.03914827619069446,0.26542653825995427,-0.183206106870229,-3.7251908396946565,0.310791015625,-0.0399169921875,-1.1285400390625,-0.07633587786259542,-3.7480916030534353,-0.0916030534351145,0.0039484500885009766
85,-0.03990473652972992,0.26420751234923795,-0.08396946564885496,-3.7480916030534353,0.3076171875,-0.0482177734375,-1.1199951171875,-0.19083969465648856,-3.786259541984733,0.08396946564885496,0.003922462463378906
85,-0.039059699318761965,0.2655234829077833,-0.0916030534351145,-3.4427480916030535,0.307861328125,-0.0440673828125,-1.1280517578125,0.015267175572519083,-3.5343511450381677,0.0,0.003918886184692383
85,-0.0393804091162262,0.2673204449327853,-0.06870229007633588,-3.7022900763358777,0.307373046875,-0.0455322265625,-1.1221923828125,-0.19083969465648856,-3.6106870229007635,0.2366412213740458,0.0039196014404296875
85,-0.039805188238620934,0.2660452307578617,-0.007633587786259542,-3.7022900763358777,0.3037109375,-0.0433349609375,-1.1234130859375,-0.15267175572519084,-3.6717557251908395,-0.17557251908396945,0.003918886184692383
85,-0.03484619190974387,0.2706373779201148,-0.24427480916030533,-3.633587786259542,0.30810546875,-0.0440673828125,-1.1190185546875,-0.20610687022900764,-3.435114503816794,-0.08396946564885496,0.0039196014404296875
85,-0.041000650822760124,0.26573929748623265,-0.17557251908396945,-3.7404580152671754,0.30712890625,-0.0455322265625,-1.1221923828125,-0.22137404580152673,-3.83206106870229,-0.3511450381679389,0.003943681716918945
85,-0.0387522600799627,0.26320201563869966,-0.15267175572519084,-3.900763358778626,0.311279296875,-0.0428466796875,-1.1260986328125,-0.1450381679389313,-3.6564885496183206,-0.05343511450381679,0.003918886184692383
85,-0.037895546956516556,0.2680903603097707,-0.0916030534351145,-3.549618320610687,0.304931640625,-0.0416259765625,-1.1268310546875,-0.17557251908396945,-3.6564885496183206,0.05343511450381679,0.003917694091796875
85,-0.03652347244325135,0.2659508807409129,-0.1297709923664122,-3.648854961832061,0.304931640625,-0.0391845703125,-1.1282958984375,-0.061068702290076333,-3.7404580152671754,-0.1297709923664122,0.003918170928955078
85,-0.04053968314606095,0.2698946288271694,-0.07633587786259542,-3.5114503816793894,0.306640625,-0.0494384765625,-1.1207275390625,0.030534351145038167,-3.801526717557252,-0.06870229007633588,0.003920078277587891
85,-0.04171439850361386,0.2658773137034945,-0.183206106870229,-3.618320610687023,0.305419921875,-0.0445556640625,-1.1322021484375,-0.22137404580152673,-3.7251908396946565,-0.007633587786259542,0.003918647766113281
85,-0.03692062600564464,0.26405781005822526,0.007633587786259542,-3.435114503816794,0.3056640625,-0.0477294921875,-1.1297607421875,0.030534351145038167,-3.4198473282442747,0.0916030534351145,0.0039174556732177734
