emg_0,emg_1,emg_2,emg_3,emg_4,acc_x,acc_y,acc_z,gyro_x,gyro_y,gyro_z,dt
0.15267175572519084,-3.595419847328244,-0.09923664122137404,0.7878317832946777
0.05343511450381679,-3.4580152671755724,0.022900763358778626,0.0010690689086914062
0.11450381679389313,-3.381679389312977,0.12213740458015267,0.0009770393371582031
0.0916030534351145,-3.5801526717557253,-0.03816793893129771,0.0020492076873779297
0.03816793893129771,-3.7099236641221376,-0.17557251908396945,0.0009799003601074219
0.007633587786259542,-3.564885496183206,0.015267175572519083,0.000978708267211914
0.07633587786259542,-3.3969465648854964,0.15267175572519084,0.0009679794311523438
0.1450381679389313,-3.3053435114503817,0.16030534351145037,0.0009510517120361328
0.007633587786259542,-3.3435114503816794,0.0,0.0009551048278808594
0.0,-3.4580152671755724,-0.007633587786259542,0.00102996826171875
0.030534351145038167,-3.549618320610687,0.08396946564885496,0.0011053085327148438
0.07633587786259542,-3.4732824427480917,0.1450381679389313,0.0010666847229003906
0.0,-3.3435114503816794,0.24427480916030533,0.0010762214660644531
-0.07633587786259542,-3.5572519083969465,0.17557251908396945,0.0010981559753417969
0.10687022900763359,-3.6793893129770994,-0.030534351145038167,0.0010111331939697266
0.09923664122137404,-3.5877862595419847,-0.08396946564885496,0.000982522964477539
0.0,-3.450381679389313,0.015267175572519083,0.0009784698486328125
0.030534351145038167,-3.4198473282442747,0.04580152671755725,0.0009860992431640625
0.007633587786259542,-3.5114503816793894,-0.015267175572519083,0.0009829998016357422
0.04580152671755725,-3.450381679389313,-0.007633587786259542,0.0009834766387939453
0.13740458015267176,-3.2519083969465647,0.061068702290076333,0.0009796619415283203
-0.015267175572519083,-3.519083969465649,0.12213740458015267,0.0009799003601074219
-0.20610687022900764,-3.66412213740458,0.10687022900763359,0.000978231430053711
-0.0916030534351145,-3.4656488549618323,0.015267175572519083,0.0009717941284179688
0.03816793893129771,-3.3740458015267176,0.007633587786259542,0.001010894775390625
0.09923664122137404,-3.450381679389313,0.04580152671755725,0.0010330677032470703
0.0,-3.5343511450381677,0.030534351145038167,0.0010001659393310547
0.03816793893129771,-3.427480916030534,0.0916030534351145,0.0009751319885253906
0.0,-3.480916030534351,-0.06870229007633588,0.0009458065032958984
0.11450381679389313,-3.427480916030534,-0.09923664122137404,0.0009481906890869141
0.12213740458015267,-3.3435114503816794,0.007633587786259542,0.0009856224060058594
0.07633587786259542,-3.282442748091603,-0.12213740458015267,0.0010259151458740234
0.061068702290076333,-3.480916030534351,-0.1984732824427481,0.0010154247283935547
0.03816793893129771,-3.4427480916030535,-0.030534351145038167,0.0009751319885253906
0.015267175572519083,-3.4580152671755724,0.0,0.0009655952453613281
0.061068702290076333,-3.4656488549618323,-0.030534351145038167,0.0009715557098388672
-0.10687022900763359,-3.3587786259541983,0.030534351145038167,0.0009429454803466797
-0.061068702290076333,-3.4122137404580153,0.022900763358778626,0.0009067058563232422
-0.007633587786259542,-3.366412213740458,0.09923664122137404,0.0009028911590576172
0.030534351145038167,-3.366412213740458,0.05343511450381679,0.0009064674377441406
0.015267175572519083,-3.2977099236641223,-0.16030534351145037,0.0009229183197021484
0.0,-3.3893129770992365,-0.29770992366412213,0.0009047985076904297
-0.09923664122137404,-3.2213740458015265,-0.022900763358778626,0.0009014606475830078
-0.007633587786259542,-3.2977099236641223,0.061068702290076333,0.0009171962738037109
0.015267175572519083,-3.3893129770992365,-0.16793893129770993,0.0010623931884765625
0.08396946564885496,-3.6259541984732824,-0.17557251908396945,0.0010178089141845703
0.0,-3.6793893129770994,0.06870229007633588,0.0010182857513427734
0.015267175572519083,-3.5877862595419847,0.10687022900763359,0.0009677410125732422
0.07633587786259542,-3.381679389312977,-0.030534351145038167,0.0010178089141845703
0.061068702290076333,-3.381679389312977,-0.030534351145038167,0.0009164810180664062
0.022900763358778626,-3.4427480916030535,-0.022900763358778626,0.0009038448333740234
0.061068702290076333,-3.6793893129770994,0.007633587786259542,0.0009100437164306641
0.07633587786259542,-3.732824427480916,-0.0916030534351145,0.00090789794921875
-0.03816793893129771,-3.5267175572519083,0.0916030534351145,0.0010352134704589844
0.05343511450381679,-3.4656488549618323,-0.030534351145038167,0.001051187515258789
0.15267175572519084,-3.435114503816794,-0.05343511450381679,0.0010156631469726562
0.3282442748091603,-3.4656488549618323,-0.0916030534351145,0.0009851455688476562
0.07633587786259542,-3.5801526717557253,0.06870229007633588,0.0009989738464355469
-0.061068702290076333,-3.5114503816793894,0.25190839694656486,0.0009543895721435547
-0.04580152671755725,-3.427480916030534,-0.022900763358778626,0.0009081363677978516
-0.12213740458015267,-3.4198473282442747,-0.07633587786259542,0.0009093284606933594
-0.10687022900763359,-3.4885496183206106,-0.03816793893129771,0.0009267330169677734
-0.10687022900763359,-3.50381679389313,0.030534351145038167,0.0009069442749023438
-0.007633587786259542,-3.5267175572519083,0.04580152671755725,0.0009028911590576172
0.061068702290076333,-3.4580152671755724,-0.015267175572519083,0.0009784698486328125
0.0,-3.3740458015267176,0.04580152671755725,0.0009114742279052734
-0.07633587786259542,-3.282442748091603,0.05343511450381679,0.0009019374847412109
-0.08396946564885496,-3.114503816793893,0.015267175572519083,0.0009026527404785156
0.015267175572519083,-3.2061068702290076,0.015267175572519083,0.0009024143218994141
0.16030534351145037,-3.3740458015267176,0.12213740458015267,0.0009031295776367188
0.11450381679389313,-3.4580152671755724,0.0,0.00090789794921875
0.0,-3.6259541984732824,0.1450381679389313,0.0008997917175292969
0.0,-3.7099236641221376,0.19083969465648856,0.0008993148803710938
0.0,-3.6793893129770994,0.007633587786259542,0.0009000301361083984
-0.05343511450381679,-3.2977099236641223,-0.12213740458015267,0.0009088516235351562
0.04580152671755725,-3.2519083969465647,0.04580152671755725,0.0009937286376953125
0.06870229007633588,-3.435114503816794,0.2366412213740458,0.0010080337524414062
-0.007633587786259542,-3.6106870229007635,0.09923664122137404,0.0009157657623291016
-0.03816793893129771,-3.618320610687023,-0.11450381679389313,0.0009045600891113281
0.04580152671755725,-3.6412213740458017,-0.061068702290076333,0.0009026527404785156
0.0,-3.6259541984732824,0.007633587786259542,0.0009016990661621094
0.007633587786259542,-3.4885496183206106,0.015267175572519083,0.0009005069732666016
0.08396946564885496,-3.3435114503816794,-0.1450381679389313,0.0009019374847412109
0.22900763358778625,-3.3587786259541983,0.183206106870229,0.0015811920166015625
0.1450381679389313,-3.4885496183206106,0.022900763358778626,0.0010046958923339844
0.1297709923664122,-3.6259541984732824,-0.12213740458015267,0.0009491443634033203
0.007633587786259542,-3.549618320610687,-0.12213740458015267,0.0009579658508300781
-0.04580152671755725,-3.3969465648854964,0.03816793893129771,0.0009236335754394531
-0.16030534351145037,-3.4122137404580153,0.0,0.000934600830078125
-0.26717557251908397,-3.564885496183206,0.0,0.0009479522705078125
-0.03816793893129771,-3.6106870229007635,0.007633587786259542,0.0009958744049072266
0.1450381679389313,-3.4656488549618323,0.061068702290076333,0.001018524169921875
0.11450381679389313,-3.6717557251908395,-0.015267175572519083,0.00103759765625
0.11450381679389313,-3.595419847328244,-0.07633587786259542,0.0011475086212158203
0.16030534351145037,-3.3969465648854964,-0.1297709923664122,0.0010402202606201172
0.15267175572519084,-3.4580152671755724,-0.15267175572519084,0.0009119510650634766
0.061068702290076333,-3.5877862595419847,0.05343511450381679,0.0009057521820068359
0.03816793893129771,-3.6259541984732824,0.0916030534351145,0.0009021759033203125
0.061068702290076333,-3.5877862595419847,0.22900763358778625,0.0009398460388183594
0.022900763358778626,-3.4580152671755724,-0.007633587786259542,0.0009045600891113281
-0.007633587786259542,-3.3969465648854964,-0.03816793893129771,0.0009038448333740234
-0.061068702290076333,-3.2900763358778624,0.12213740458015267,0.001088857650756836
-0.03816793893129771,-3.4656488549618323,0.1297709923664122,0.0009326934814453125
-0.007633587786259542,-3.648854961832061,0.09923664122137404,0.0009090900421142578
0.10687022900763359,-3.5419847328244276,0.1297709923664122,0.0009138584136962891
0.0,-3.519083969465649,0.08396946564885496,0.0009036064147949219
-0.08396946564885496,-3.6030534351145036,0.16793893129770993,0.0009036064147949219
0.0,-3.6717557251908395,0.10687022900763359,0.0009026527404785156
-0.030534351145038167,-3.366412213740458,-0.07633587786259542,0.0009007453918457031
-0.07633587786259542,-3.267175572519084,-0.06870229007633588,0.0009016990661621094
-0.13740458015267176,-3.5114503816793894,-0.04580152671755725,0.0009121894836425781
-0.05343511450381679,-3.687022900763359,-0.03816793893129771,0.0009026527404785156
-0.1297709923664122,-3.572519083969466,-0.10687022900763359,0.0009012222290039062
-0.05343511450381679,-3.4656488549618323,0.022900763358778626,0.0009021759033203125
-0.04580152671755725,-3.572519083969466,0.007633587786259542,0.0009019374847412109
-0.03816793893129771,-3.5267175572519083,-0.007633587786259542,0.0009014606475830078
0.04580152671755725,-3.3282442748091605,-0.007633587786259542,0.0009016990661621094
0.06870229007633588,-3.381679389312977,0.183206106870229,0.0009002685546875
0.030534351145038167,-3.4885496183206106,0.06870229007633588,0.0009002685546875
0.030534351145038167,-3.5343511450381677,0.1297709923664122,0.0009012222290039062
-0.030534351145038167,-3.4732824427480917,0.1450381679389313,0.0009005069732666016
0.0,-3.5267175572519083,0.1450381679389313,0.0009009838104248047
0.09923664122137404,-3.564885496183206,-0.007633587786259542,0.0008990764617919922
0.08396946564885496,-3.4122137404580153,-0.061068702290076333,0.0009007453918457031
0.007633587786259542,-3.4122137404580153,-0.07633587786259542,0.0009036064147949219
-0.022900763358778626,-3.49618320610687,-0.015267175572519083,0.0009028911590576172
0.10687022900763359,-3.351145038167939,-0.05343511450381679,0.0009107589721679688
0.17557251908396945,-3.3969465648854964,-0.07633587786259542,0.0009031295776367188
0.29770992366412213,-3.4732824427480917,0.11450381679389313,0.000904083251953125
0.13740458015267176,-3.519083969465649,0.26717557251908397,0.0009014606475830078
0.0,-3.3969465648854964,0.11450381679389313,0.0009024143218994141
-0.09923664122137404,-3.5114503816793894,-0.022900763358778626,0.0009009838104248047
-0.061068702290076333,-3.4732824427480917,0.061068702290076333,0.0009031295776367188
0.061068702290076333,-3.312977099236641,-0.04580152671755725,0.0009036064147949219
0.022900763358778626,-3.3587786259541983,-0.10687022900763359,0.0009026527404785156
-0.007633587786259542,-3.564885496183206,-0.04580152671755725,0.0009028911590576172
-0.07633587786259542,-3.5343511450381677,0.007633587786259542,0.0009024143218994141
-0.1297709923664122,-3.5114503816793894,0.12213740458015267,0.0009033679962158203
-0.06870229007633588,-3.4656488549618323,0.2748091603053435,0.0009026527404785156
-0.022900763358778626,-3.4198473282442747,0.16793893129770993,0.0009031295776367188
0.10687022900763359,-3.351145038167939,-0.08396946564885496,0.0009028911590576172
0.16030534351145037,-3.427480916030534,-0.08396946564885496,0.0009033679962158203
0.022900763358778626,-3.4656488549618323,0.10687022900763359,0.0009021759033203125
0.11450381679389313,-3.5114503816793894,0.007633587786259542,0.0009028911590576172
0.0,-3.595419847328244,0.0,0.0009021759033203125
0.0,-3.572519083969466,-0.06870229007633588,0.0008988380432128906
0.09923664122137404,-3.5267175572519083,0.12213740458015267,0.0009012222290039062
0.12213740458015267,-3.6717557251908395,0.11450381679389313,0.0009016990661621094
0.07633587786259542,-3.6259541984732824,0.007633587786259542,0.0009021759033203125
0.03816793893129771,-3.648854961832061,-0.12213740458015267,0.0009019374847412109
-0.007633587786259542,-3.3206106870229006,-0.05343511450381679,0.0009033679962158203
0.03816793893129771,-3.1755725190839694,0.03816793893129771,0.0009024143218994141
0.030534351145038167,-3.3053435114503817,0.015267175572519083,0.0009014606475830078
0.022900763358778626,-3.50381679389313,-0.03816793893129771,0.0009019374847412109
0.0,-3.381679389312977,0.04580152671755725,0.0009036064147949219
0.0,-3.3206106870229006,0.04580152671755725,0.0009009838104248047
-0.04580152671755725,-3.5343511450381677,-0.030534351145038167,0.0008995532989501953
-0.061068702290076333,-3.5114503816793894,-0.08396946564885496,0.0009028911590576172
0.0,-3.5419847328244276,-0.05343511450381679,0.0009028911590576172
0.05343511450381679,-3.519083969465649,-0.015267175572519083,0.0009005069732666016
0.16793893129770993,-3.3969465648854964,-0.04580152671755725,0.0009014606475830078
0.32061068702290074,-3.33587786259542,0.05343511450381679,0.0009021759033203125
0.2900763358778626,-3.5267175572519083,-0.0916030534351145,0.0009024143218994141
0.15267175572519084,-3.5419847328244276,-0.06870229007633588,0.0009152889251708984
0.07633587786259542,-3.519083969465649,-0.0916030534351145,0.0009033679962158203
0.07633587786259542,-3.3969465648854964,0.007633587786259542,0.0009024143218994141
0.007633587786259542,-3.312977099236641,0.061068702290076333,0.0009028911590576172
-0.07633587786259542,-3.3587786259541983,0.022900763358778626,0.0009019374847412109
-0.16030534351145037,-3.5877862595419847,-0.13740458015267176,0.0009033679962158203
-0.08396946564885496,-3.5267175572519083,-0.06870229007633588,0.0009026527404785156
-0.06870229007633588,-3.3893129770992365,0.0,0.0009028911590576172
-0.022900763358778626,-3.3206106870229006,0.07633587786259542,0.0009007453918457031
0.015267175572519083,-3.5267175572519083,0.030534351145038167,0.0009031295776367188
0.007633587786259542,-3.717557251908397,0.0916030534351145,0.0009019374847412109
0.030534351145038167,-3.6412213740458017,0.07633587786259542,0.0009014606475830078
0.06870229007633588,-3.50381679389313,0.03816793893129771,0.0009021759033203125
0.04580152671755725,-3.4580152671755724,0.007633587786259542,0.0009016990661621094
-0.03816793893129771,-3.4198473282442747,-0.015267175572519083,0.0009026527404785156
0.007633587786259542,-3.5877862595419847,-0.0916030534351145,0.0009028911590576172
0.07633587786259542,-3.648854961832061,-0.0916030534351145,0.0009028911590576172
-0.05343511450381679,-3.595419847328244,-0.1984732824427481,0.0009019374847412109
-0.06870229007633588,-3.427480916030534,-0.1450381679389313,0.0009026527404785156
0.09923664122137404,-3.450381679389313,0.06870229007633588,0.0009019374847412109
0.04580152671755725,-3.6564885496183206,0.17557251908396945,0.0009016990661621094
-0.03816793893129771,-3.717557251908397,0.183206106870229,0.0009016990661621094
-0.17557251908396945,-3.732824427480916,0.2748091603053435,0.0009016990661621094
-0.21374045801526717,-3.6412213740458017,0.19083969465648856,0.0009026527404785156
-0.015267175572519083,-3.49618320610687,0.21374045801526717,0.0009016990661621094
0.06870229007633588,-3.519083969465649,0.13740458015267176,0.0009372234344482422
0.07633587786259542,-3.7022900763358777,-0.08396946564885496,0.0009102821350097656
0.13740458015267176,-3.6564885496183206,0.05343511450381679,0.0009057521820068359
0.06870229007633588,-3.435114503816794,0.10687022900763359,0.0008985996246337891
0.0,-3.3587786259541983,0.08396946564885496,0.0009016990661621094
-0.007633587786259542,-3.3282442748091605,0.05343511450381679,0.0009000301361083984
0.1984732824427481,-3.3893129770992365,0.12213740458015267,0.0009045600891113281
0.2748091603053435,-3.49618320610687,0.16030534351145037,0.0009012222290039062
0.10687022900763359,-3.435114503816794,0.2748091603053435,0.0009016990661621094
-0.10687022900763359,-3.572519083969466,0.20610687022900764,0.0009021759033203125
-0.16030534351145037,-3.549618320610687,0.17557251908396945,0.0009024143218994141
-0.08396946564885496,-3.6259541984732824,0.12213740458015267,0.0009033679962158203
0.06870229007633588,-3.7404580152671754,0.11450381679389313,0.0009019374847412109
0.17557251908396945,-3.6793893129770994,0.08396946564885496,0.0009019374847412109
0.0916030534351145,-3.404580152671756,0.20610687022900764,0.0010540485382080078
0.1450381679389313,-3.4122137404580153,0.0,0.0009152889251708984
0.08396946564885496,-3.6793893129770994,-0.08396946564885496,0.0009024143218994141
0.15267175572519084,-3.7480916030534353,0.030534351145038167,0.0009036064147949219
0.07633587786259542,-3.6259541984732824,0.16793893129770993,0.0009033679962158203
-0.1297709923664122,-3.6259541984732824,0.20610687022900764,0.0009031295776367188
-0.20610687022900764,-3.4732824427480917,0.11450381679389313,0.0009026527404785156
0.007633587786259542,-3.4580152671755724,0.12213740458015267,0.0009031295776367188
0.16030534351145037,-3.4885496183206106,0.04580152671755725,0.0009021759033203125
0.2595419847328244,-3.5114503816793894,0.05343511450381679,0.0009019374847412109
0.183206106870229,-3.427480916030534,0.17557251908396945,0.0009014606475830078
-0.16030534351145037,-3.3587786259541983,0.3435114503816794,0.0009024143218994141
-0.183206106870229,-3.3893129770992365,0.06870229007633588,0.0009024143218994141
0.015267175572519083,-3.572519083969466,-0.03816793893129771,0.0009016990661621094
0.12213740458015267,-3.6106870229007635,0.0,0.0009033679962158203
0.05343511450381679,-3.4580152671755724,0.015267175572519083,0.0009000301361083984
-0.08396946564885496,-3.381679389312977,-0.007633587786259542,0.0009016990661621094
-0.10687022900763359,-3.519083969465649,0.08396946564885496,0.0009024143218994141
-0.015267175572519083,-3.6717557251908395,0.03816793893129771,0.0009019374847412109
-0.05343511450381679,-3.5267175572519083,0.04580152671755725,0.0009033679962158203
-0.06870229007633588,-3.49618320610687,-0.0916030534351145,0.0009014606475830078
-0.09923664122137404,-3.595419847328244,-0.07633587786259542,0.0009019374847412109
0.007633587786259542,-3.519083969465649,0.007633587786259542,0.0009021759033203125
0.007633587786259542,-3.5343511450381677,0.08396946564885496,0.0009028911590576172
0.0,-3.6564885496183206,0.09923664122137404,0.0009016990661621094
-0.13740458015267176,-3.564885496183206,0.015267175572519083,0.0009002685546875
-0.06870229007633588,-3.3740458015267176,0.007633587786259542,0.0009024143218994141
0.061068702290076333,-3.2748091603053435,-0.07633587786259542,0.0009214878082275391
0.06870229007633588,-3.366412213740458,-0.3282442748091603,0.0009033679962158203
0.022900763358778626,-3.50381679389313,-0.19083969465648856,0.0009021759033203125
-0.1450381679389313,-3.435114503816794,-0.0916030534351145,0.0009024143218994141
-0.17557251908396945,-3.5343511450381677,-0.04580152671755725,0.0009024143218994141
-0.06870229007633588,-3.519083969465649,0.04580152671755725,0.0009036064147949219
0.1297709923664122,-3.4732824427480917,0.08396946564885496,0.0009016990661621094
0.07633587786259542,-3.3435114503816794,0.03816793893129771,0.0009016990661621094
0.04580152671755725,-3.4198473282442747,-0.1450381679389313,0.0009019374847412109
0.007633587786259542,-3.5419847328244276,-0.09923664122137404,0.0009026527404785156
0.07633587786259542,-3.5343511450381677,-0.09923664122137404,0.0009019374847412109
0.13740458015267176,-3.3740458015267176,-0.08396946564885496,0.0009024143218994141
0.09923664122137404,-3.3969465648854964,-0.11450381679389313,0.0009014606475830078
0.015267175572519083,-3.3740458015267176,0.04580152671755725,0.0009019374847412109
0.08396946564885496,-3.2977099236641223,0.007633587786259542,0.0009028911590576172
0.04580152671755725,-3.3740458015267176,-0.11450381679389313,0.0009014606475830078
0.0,-3.3587786259541983,-0.26717557251908397,0.0009021759033203125
-0.183206106870229,-3.3282442748091605,-0.022900763358778626,0.0009009838104248047
-0.10687022900763359,-3.3740458015267176,-0.0916030534351145,0.0009036064147949219
0.061068702290076333,-3.480916030534351,-0.061068702290076333,0.0009021759033203125
0.007633587786259542,-3.5419847328244276,-0.04580152671755725,0.0009019374847412109
-0.03816793893129771,-3.427480916030534,-0.015267175572519083,0.0009021759033203125
-0.10687022900763359,-3.450381679389313,-0.10687022900763359,0.0009024143218994141
-0.1297709923664122,-3.786259541984733,0.10687022900763359,0.0009033679962158203
-0.16030534351145037,-3.618320610687023,0.007633587786259542,0.0009014606475830078
-0.09923664122137404,-3.427480916030534,-0.10687022900763359,0.0009016990661621094
0.030534351145038167,-3.5419847328244276,-0.09923664122137404,0.0009031295776367188
0.12213740458015267,-3.49618320610687,-0.15267175572519084,0.0009033679962158203
0.007633587786259542,-3.4656488549618323,-0.10687022900763359,0.0009019374847412109
0.06870229007633588,-3.564885496183206,-0.06870229007633588,0.0009031295776367188
0.08396946564885496,-3.5877862595419847,-0.03816793893129771,0.0009026527404785156
0.12213740458015267,-3.381679389312977,-0.10687022900763359,0.0009028911590576172
0.11450381679389313,-3.2290076335877864,-0.06870229007633588,0.0009016990661621094
0.022900763358778626,-3.312977099236641,-0.03816793893129771,0.0009026527404785156
0.03816793893129771,-3.4580152671755724,0.007633587786259542,0.0009014606475830078
0.0916030534351145,-3.4885496183206106,0.04580152671755725,0.0009024143218994141
0.10687022900763359,-3.5114503816793894,-0.03816793893129771,0.0009024143218994141
-0.007633587786259542,-3.404580152671756,0.05343511450381679,0.0009019374847412109
-0.06870229007633588,-3.3206106870229006,0.25190839694656486,0.0009031295776367188
0.03816793893129771,-3.427480916030534,0.0916030534351145,0.0009024143218994141
0.08396946564885496,-3.480916030534351,0.007633587786259542,0.0009021759033203125
-0.06870229007633588,-3.564885496183206,-0.007633587786259542,0.0009014606475830078
0.007633587786259542,-3.4122137404580153,0.0,0.0009024143218994141
-0.030534351145038167,-3.3587786259541983,0.0916030534351145,0.0009007453918457031
0.07633587786259542,-3.50381679389313,-0.007633587786259542,0.0009026527404785156
0.04580152671755725,-3.763358778625954,-0.015267175572519083,0.0009031295776367188
-0.08396946564885496,-3.7251908396946565,0.12213740458015267,0.0009021759033203125
-0.09923664122137404,-3.5801526717557253,0.10687022900763359,0.0009028911590576172
-0.022900763358778626,-3.3282442748091605,0.06870229007633588,0.0009024143218994141
0.09923664122137404,-3.404580152671756,-0.04580152671755725,0.0009024143218994141
0.061068702290076333,-3.5801526717557253,-0.03816793893129771,0.0009019374847412109
-0.030534351145038167,-3.49618320610687,0.1297709923664122,0.0009024143218994141
-0.05343511450381679,-3.4580152671755724,0.1450381679389313,0.0009016990661621094
0.04580152671755725,-3.4656488549618323,0.1984732824427481,0.0009176731109619141
0.03816793893129771,-3.4885496183206106,0.17557251908396945,0.0009033679962158203
0.061068702290076333,-3.381679389312977,0.16030534351145037,0.0009016990661621094
0.022900763358778626,-3.4656488549618323,0.022900763358778626,0.0009016990661621094
0.0,-3.3740458015267176,0.05343511450381679,0.0009021759033203125
-0.07633587786259542,-3.564885496183206,0.0,0.0009789466857910156
-0.13740458015267176,-3.564885496183206,-0.04580152671755725,0.0009636878967285156
-0.0916030534351145,-3.3282442748091605,-0.19083969465648856,0.0009107589721679688
-0.061068702290076333,-3.1603053435114505,-0.06870229007633588,0.0009043216705322266
0.06870229007633588,-3.33587786259542,0.08396946564885496,0.0009093284606933594
0.16793893129770993,-3.5267175572519083,0.2595419847328244,0.0009019374847412109
0.030534351145038167,-3.450381679389313,0.03816793893129771,0.0009019374847412109
-0.0916030534351145,-3.312977099236641,-0.030534351145038167,0.0009019374847412109
-0.1450381679389313,-3.2748091603053435,-0.030534351145038167,0.0009036064147949219
-0.16793893129770993,-3.450381679389313,0.061068702290076333,0.0009033679962158203
-0.11450381679389313,-3.5572519083969465,0.17557251908396945,0.0009019374847412109
0.007633587786259542,-3.5343511450381677,0.1450381679389313,0.0009024143218994141
0.007633587786259542,-3.312977099236641,0.007633587786259542,0.0009016990661621094
0.03816793893129771,-3.213740458015267,0.09923664122137404,0.0009031295776367188
0.11450381679389313,-3.3893129770992365,0.061068702290076333,0.0009012222290039062
0.09923664122137404,-3.435114503816794,0.1297709923664122,0.0010535717010498047
0.10687022900763359,-3.549618320610687,0.06870229007633588,0.0009100437164306641
0.015267175572519083,-3.5572519083969465,0.1297709923664122,0.0009045600891113281
-0.007633587786259542,-3.5419847328244276,0.03816793893129771,0.0009021759033203125
-0.030534351145038167,-3.4580152671755724,0.015267175572519083,0.0009031295776367188
-0.09923664122137404,-3.572519083969466,0.17557251908396945,0.0009024143218994141
0.09923664122137404,-3.6412213740458017,0.05343511450381679,0.0009026527404785156
0.13740458015267176,-3.549618320610687,-0.03816793893129771,0.0009021759033203125
-0.007633587786259542,-3.5801526717557253,-0.03816793893129771,0.0009014606475830078
-0.061068702290076333,-3.519083969465649,0.0,0.0009036064147949219
-0.04580152671755725,-3.4885496183206106,0.04580152671755725,0.0009012222290039062
0.015267175572519083,-3.435114503816794,0.06870229007633588,0.0009033679962158203
0.03816793893129771,-3.2900763358778624,-0.1297709923664122,0.0009014606475830078
0.022900763358778626,-3.33587786259542,0.0,0.0009021759033203125
0.030534351145038167,-3.435114503816794,0.030534351145038167,0.0009007453918457031
-0.07633587786259542,-3.3435114503816794,0.2366412213740458,0.0009241104125976562
0.04580152671755725,-3.3053435114503817,0.061068702290076333,0.0009031295776367188
0.08396946564885496,-3.3969465648854964,-0.13740458015267176,0.0009021759033203125
0.07633587786259542,-3.381679389312977,-0.25190839694656486,0.0009021759033203125
-0.1450381679389313,-3.427480916030534,-0.16793893129770993,0.0009024143218994141
-0.12213740458015267,-3.427480916030534,-0.10687022900763359,0.0009033679962158203
0.007633587786259542,-3.4656488549618323,0.030534351145038167,0.0009016990661621094
0.16030534351145037,-3.572519083969466,0.22137404580152673,0.0009019374847412109
0.07633587786259542,-3.5801526717557253,0.08396946564885496,0.0009014606475830078
0.1450381679389313,-3.5419847328244276,0.030534351145038167,0.0009026527404785156
0.11450381679389313,-3.5114503816793894,0.07633587786259542,0.0009021759033203125
0.06870229007633588,-3.435114503816794,0.08396946564885496,0.0009019374847412109
0.061068702290076333,-3.480916030534351,0.06870229007633588,0.0009009838104248047
0.10687022900763359,-3.404580152671756,0.015267175572519083,0.0009016990661621094
0.0,-3.282442748091603,0.007633587786259542,0.0009021759033203125
-0.1450381679389313,-3.435114503816794,0.13740458015267176,0.0008995532989501953
-0.13740458015267176,-3.564885496183206,0.03816793893129771,0.0009024143218994141
0.030534351145038167,-3.633587786259542,0.022900763358778626,0.0009021759033203125
0.03816793893129771,-3.5114503816793894,0.007633587786259542,0.0009028911590576172
-0.06870229007633588,-3.5267175572519083,-0.007633587786259542,0.0009016990661621094
-0.09923664122137404,-3.4656488549618323,-0.08396946564885496,0.0009028911590576172
-0.061068702290076333,-3.312977099236641,-0.16793893129770993,0.0009028911590576172
0.007633587786259542,-3.1908396946564888,-0.07633587786259542,0.0009024143218994141
-0.030534351145038167,-3.2442748091603053,0.0916030534351145,0.0009031295776367188
-0.007633587786259542,-3.351145038167939,0.13740458015267176,0.0009016990661621094
-0.08396946564885496,-3.4580152671755724,0.16793893129770993,0.0009033679962158203
-0.0916030534351145,-3.5343511450381677,-0.007633587786259542,0.0009038448333740234
-0.007633587786259542,-3.4580152671755724,0.11450381679389313,0.0009038448333740234
0.06870229007633588,-3.435114503816794,0.12213740458015267,0.0009019374847412109
0.007633587786259542,-3.3969465648854964,0.022900763358778626,0.0009016990661621094
-0.16793893129770993,-3.3969465648854964,-0.04580152671755725,0.0009021759033203125
-0.015267175572519083,-3.3969465648854964,0.015267175572519083,0.0009033679962158203
0.06870229007633588,-3.33587786259542,0.0,0.0009024143218994141
-0.1297709923664122,-3.3893129770992365,0.0,0.0008997917175292969
-0.03816793893129771,-3.4732824427480917,0.11450381679389313,0.0009007453918457031
0.11450381679389313,-3.4732824427480917,0.16793893129770993,0.0009024143218994141
0.007633587786259542,-3.572519083969466,0.0,0.0009024143218994141
0.015267175572519083,-3.5343511450381677,-0.07633587786259542,0.0009000301361083984
-0.05343511450381679,-3.5343511450381677,-0.13740458015267176,0.0009028911590576172
-0.08396946564885496,-3.6793893129770994,-0.061068702290076333,0.0009033679962158203
-0.1297709923664122,-3.5801526717557253,0.15267175572519084,0.0009033679962158203
-0.0916030534351145,-3.2748091603053435,0.2595419847328244,0.0009016990661621094
0.0,-3.4656488549618323,0.25190839694656486,0.0009019374847412109
0.11450381679389313,-3.572519083969466,0.08396946564885496,0.0009009838104248047
0.07633587786259542,-3.4580152671755724,0.061068702290076333,0.0009012222290039062
-0.015267175572519083,-3.4122137404580153,-0.030534351145038167,0.0009026527404785156
-0.15267175572519084,-3.3435114503816794,0.03816793893129771,0.0009067058563232422
-0.09923664122137404,-3.381679389312977,0.007633587786259542,0.0009067058563232422
0.05343511450381679,-3.4427480916030535,0.061068702290076333,0.0009026527404785156
0.061068702290076333,-3.435114503816794,0.11450381679389313,0.0009033679962158203
0.04580152671755725,-3.4427480916030535,0.10687022900763359,0.0009016990661621094
0.08396946564885496,-3.366412213740458,-0.030534351145038167,0.0009016990661621094
0.08396946564885496,-3.3969465648854964,0.007633587786259542,0.0009033679962158203
-0.015267175572519083,-3.5572519083969465,0.007633587786259542,0.0009033679962158203
-0.030534351145038167,-3.595419847328244,0.05343511450381679,0.0009021759033203125
0.030534351145038167,-3.519083969465649,-0.007633587786259542,0.0009026527404785156
0.10687022900763359,-3.4885496183206106,0.015267175572519083,0.0009026527404785156
0.16030534351145037,-3.3969465648854964,-0.0916030534351145,0.0009026527404785156
0.10687022900763359,-3.236641221374046,0.06870229007633588,0.0009028911590576172
0.0916030534351145,-3.2595419847328246,0.22900763358778625,0.0009005069732666016
0.022900763358778626,-3.519083969465649,0.16793893129770993,0.0009024143218994141
0.030534351145038167,-3.648854961832061,0.04580152671755725,0.0009019374847412109
0.022900763358778626,-3.7404580152671754,0.06870229007633588,0.000904083251953125
-0.015267175572519083,-3.6106870229007635,0.15267175572519084,0.0009019374847412109
0.030534351145038167,-3.3969465648854964,0.08396946564885496,0.0009028911590576172
0.061068702290076333,-3.312977099236641,0.09923664122137404,0.0009021759033203125
-0.03816793893129771,-3.4122137404580153,0.21374045801526717,0.0009019374847412109
-0.030534351145038167,-3.404580152671756,0.16793893129770993,0.0009036064147949219
-0.022900763358778626,-3.5343511450381677,0.061068702290076333,0.0009021759033203125
-0.007633587786259542,-3.427480916030534,-0.030534351145038167,0.0009024143218994141
0.03816793893129771,-3.50381679389313,-0.10687022900763359,0.0009031295776367188
0.15267175572519084,-3.6412213740458017,0.04580152671755725,0.0009043216705322266
0.1450381679389313,-3.6106870229007635,-0.061068702290076333,0.0009014606475830078
0.05343511450381679,-3.351145038167939,0.0,0.0009019374847412109
-0.06870229007633588,-3.4580152671755724,0.3053435114503817,0.0009000301361083984
-0.12213740458015267,-3.5343511450381677,0.06870229007633588,0.0009024143218994141
0.06870229007633588,-3.480916030534351,-0.06870229007633588,0.0009031295776367188
0.24427480916030533,-3.366412213740458,-0.030534351145038167,0.0009014606475830078
0.22900763358778625,-3.3587786259541983,-0.15267175572519084,0.0009028911590576172
0.09923664122137404,-3.4656488549618323,0.0,0.0009028911590576172
0.05343511450381679,-3.3969465648854964,0.05343511450381679,0.0009009838104248047
0.11450381679389313,-3.2748091603053435,0.13740458015267176,0.0009009838104248047
0.07633587786259542,-3.33587786259542,-0.007633587786259542,0.0009021759033203125
0.030534351145038167,-3.366412213740458,-0.12213740458015267,0.0009021759033203125
0.07633587786259542,-3.595419847328244,-0.07633587786259542,0.0009033679962158203
0.061068702290076333,-3.49618320610687,0.07633587786259542,0.0010194778442382812
0.007633587786259542,-3.4732824427480917,-0.08396946564885496,0.0009076595306396484
-0.022900763358778626,-3.49618320610687,-0.12213740458015267,0.0009038448333740234
-0.06870229007633588,-3.480916030534351,-0.0916030534351145,0.0009038448333740234
-0.061068702290076333,-3.381679389312977,-0.07633587786259542,0.0009026527404785156
0.13740458015267176,-3.2977099236641223,-0.015267175572519083,0.0009024143218994141
0.19083969465648856,-3.312977099236641,0.0,0.0009024143218994141
0.08396946564885496,-3.435114503816794,0.06870229007633588,0.0009002685546875
0.007633587786259542,-3.618320610687023,-0.05343511450381679,0.0009024143218994141
-0.007633587786259542,-3.480916030534351,-0.06870229007633588,0.0009081363677978516
0.007633587786259542,-3.549618320610687,-0.09923664122137404,0.0009076595306396484
0.03816793893129771,-3.404580152671756,-0.061068702290076333,0.0009016990661621094
-0.022900763358778626,-3.3587786259541983,-0.07633587786259542,0.0009250640869140625
0.0916030534351145,-3.312977099236641,0.015267175572519083,0.0009052753448486328
0.16793893129770993,-3.2900763358778624,0.007633587786259542,0.0009024143218994141
0.08396946564885496,-3.3282442748091605,0.22137404580152673,0.0009059906005859375
-0.07633587786259542,-3.3282442748091605,0.13740458015267176,0.0009021759033203125
-0.061068702290076333,-3.480916030534351,0.16030534351145037,0.0009031295776367188
-0.09923664122137404,-3.5114503816793894,-0.13740458015267176,0.0009031295776367188
-0.05343511450381679,-3.5419847328244276,-0.04580152671755725,0.0009024143218994141
-0.11450381679389313,-3.6946564885496183,0.09923664122137404,0.0009024143218994141
0.0,-3.6946564885496183,0.22900763358778625,0.0009026527404785156
0.061068702290076333,-3.4580152671755724,0.10687022900763359,0.0009036064147949219
0.05343511450381679,-3.4885496183206106,0.06870229007633588,0.0009024143218994141
0.0,-3.3282442748091605,0.007633587786259542,0.0009024143218994141
-0.0916030534351145,-3.3206106870229006,0.07633587786259542,0.0009007453918457031
-0.030534351145038167,-3.480916030534351,0.19083969465648856,0.0009024143218994141
-0.05343511450381679,-3.49618320610687,0.183206106870229,0.0009021759033203125
0.0916030534351145,-3.564885496183206,0.12213740458015267,0.0009021759033203125
0.183206106870229,-3.572519083969466,0.061068702290076333,0.0009016990661621094
0.07633587786259542,-3.5114503816793894,-0.022900763358778626,0.0009028911590576172
0.1297709923664122,-3.450381679389313,0.0,0.0009014606475830078
-0.04580152671755725,-3.3893129770992365,0.13740458015267176,0.0009000301361083984
-0.09923664122137404,-3.366412213740458,0.1297709923664122,0.0009021759033203125
-0.06870229007633588,-3.3435114503816794,0.07633587786259542,0.0009019374847412109
0.15267175572519084,-3.5267175572519083,-0.0916030534351145,0.0009028911590576172
0.1450381679389313,-3.4732824427480917,0.022900763358778626,0.0009021759033203125
0.0,-3.3969465648854964,0.12213740458015267,0.0009021759033203125
0.015267175572519083,-3.312977099236641,0.21374045801526717,0.0009002685546875
0.0,-3.366412213740458,0.11450381679389313,0.0009021759033203125
-0.11450381679389313,-3.6793893129770994,0.007633587786259542,0.0008997917175292969
-0.09923664122137404,-3.648854961832061,-0.19083969465648856,0.0009033679962158203
-0.03816793893129771,-3.4122137404580153,-0.1450381679389313,0.0009028911590576172
-0.022900763358778626,-3.4580152671755724,0.007633587786259542,0.0009033679962158203
-0.15267175572519084,-3.66412213740458,-0.11450381679389313,0.0009026527404785156
-0.10687022900763359,-3.7022900763358777,-0.030534351145038167,0.0009031295776367188
-0.007633587786259542,-3.5801526717557253,0.015267175572519083,0.0009026527404785156
0.0,-3.5343511450381677,-0.061068702290076333,0.0009024143218994141
0.007633587786259542,-3.50381679389313,0.15267175572519084,0.0009012222290039062
0.007633587786259542,-3.351145038167939,0.17557251908396945,0.0009014606475830078
0.04580152671755725,-3.33587786259542,0.1297709923664122,0.0009012222290039062
0.07633587786259542,-3.3969465648854964,0.09923664122137404,0.0009016990661621094
0.09923664122137404,-3.404580152671756,0.030534351145038167,0.0009028911590576172
0.15267175572519084,-3.3206106870229006,0.007633587786259542,0.0009024143218994141
0.0916030534351145,-3.2519083969465647,0.07633587786259542,0.0009019374847412109
-0.05343511450381679,-3.3435114503816794,0.0,0.0009014606475830078
-0.183206106870229,-3.404580152671756,0.0,0.0008997917175292969
-0.26717557251908397,-3.49618320610687,-0.10687022900763359,0.0009009838104248047
-0.12213740458015267,-3.5343511450381677,0.007633587786259542,0.0009021759033203125
0.030534351145038167,-3.5267175572519083,0.08396946564885496,0.0009026527404785156
0.09923664122137404,-3.3435114503816794,-0.20610687022900764,0.0009026527404785156
0.0,-3.2977099236641223,-0.09923664122137404,0.0009026527404785156
-0.12213740458015267,-3.267175572519084,-0.09923664122137404,0.0009002685546875
-0.09923664122137404,-3.3969465648854964,-0.16793893129770993,0.0009019374847412109
-0.061068702290076333,-3.549618320610687,-0.1450381679389313,0.0009031295776367188
0.05343511450381679,-3.5114503816793894,-0.12213740458015267,0.0009191036224365234
0.0,-3.519083969465649,-0.10687022900763359,0.0009064674377441406
-0.061068702290076333,-3.381679389312977,-0.007633587786259542,0.0009264945983886719
-0.007633587786259542,-3.3587786259541983,-0.1450381679389313,0.0009028911590576172
0.061068702290076333,-3.4580152671755724,-0.11450381679389313,0.0009088516235351562
0.1297709923664122,-3.4580152671755724,0.030534351145038167,0.0009064674377441406
0.15267175572519084,-3.6946564885496183,0.03816793893129771,0.000904083251953125
0.16793893129770993,-3.6564885496183206,-0.05343511450381679,0.0009019374847412109
0.015267175572519083,-3.4580152671755724,0.007633587786259542,0.0009026527404785156
-0.03816793893129771,-3.480916030534351,-0.10687022900763359,0.0009036064147949219
0.061068702290076333,-3.450381679389313,0.04580152671755725,0.0009031295776367188
0.16030534351145037,-3.480916030534351,0.22900763358778625,0.0009019374847412109
0.12213740458015267,-3.572519083969466,0.22137404580152673,0.0009026527404785156
0.07633587786259542,-3.5801526717557253,0.1984732824427481,0.0009014606475830078
0.061068702290076333,-3.4656488549618323,0.0916030534351145,0.0009021759033203125
0.05343511450381679,-3.5572519083969465,-0.015267175572519083,0.0009012222290039062
0.03816793893129771,-3.4427480916030535,-0.007633587786259542,0.0009024143218994141
0.007633587786259542,-3.3893129770992365,-0.007633587786259542,0.0009026527404785156
-0.030534351145038167,-3.435114503816794,0.0,0.0009052753448486328
-0.03816793893129771,-3.435114503816794,0.07633587786259542,0.0009014606475830078
0.03816793893129771,-3.595419847328244,-0.030534351145038167,0.0009019374847412109
0.05343511450381679,-3.633587786259542,0.0916030534351145,0.0009021759033203125
-0.06870229007633588,-3.5267175572519083,0.007633587786259542,0.0009019374847412109
-0.08396946564885496,-3.312977099236641,-0.12213740458015267,0.0009267330169677734
-0.1450381679389313,-3.2900763358778624,0.007633587786259542,0.0009028911590576172
-0.05343511450381679,-3.404580152671756,0.13740458015267176,0.0009031295776367188
-0.022900763358778626,-3.519083969465649,0.07633587786259542,0.0009021759033203125
0.0,-3.6793893129770994,0.15267175572519084,0.0009026527404785156
0.0916030534351145,-3.6259541984732824,0.17557251908396945,0.0009002685546875
0.15267175572519084,-3.4885496183206106,0.06870229007633588,0.0009024143218994141
0.09923664122137404,-3.366412213740458,0.022900763358778626,0.0009016990661621094
0.015267175572519083,-3.2595419847328246,0.1297709923664122,0.0009043216705322266
0.04580152671755725,-3.366412213740458,0.17557251908396945,0.0009014606475830078
0.0916030534351145,-3.5419847328244276,0.3282442748091603,0.0009016990661621094
0.061068702290076333,-3.549618320610687,0.24427480916030533,0.0009016990661621094
0.007633587786259542,-3.50381679389313,0.061068702290076333,0.0009014606475830078
0.061068702290076333,-3.480916030534351,-0.04580152671755725,0.0010442733764648438
0.15267175572519084,-3.3435114503816794,0.007633587786259542,0.0009083747863769531
0.1450381679389313,-3.3893129770992365,0.11450381679389313,0.0009036064147949219
0.06870229007633588,-3.519083969465649,0.12213740458015267,0.0009028911590576172
-0.09923664122137404,-3.4122137404580153,0.061068702290076333,0.0009038448333740234
-0.1984732824427481,-3.435114503816794,0.0,0.0009016990661621094
-0.03816793893129771,-3.564885496183206,0.29770992366412213,0.0009019374847412109
0.04580152671755725,-3.6717557251908395,0.15267175572519084,0.0009024143218994141
0.0,-3.7786259541984735,0.19083969465648856,0.0009026527404785156
0.0,-3.5343511450381677,0.061068702290076333,0.0009007453918457031
0.0916030534351145,-3.2748091603053435,0.03816793893129771,0.0009007453918457031
0.1450381679389313,-3.267175572519084,0.007633587786259542,0.0009019374847412109
0.030534351145038167,-3.5114503816793894,0.022900763358778626,0.0009021759033203125
0.007633587786259542,-3.480916030534351,-0.030534351145038167,0.0009026527404785156
0.0,-3.33587786259542,-0.05343511450381679,0.0009019374847412109
0.07633587786259542,-3.2213740458015265,-0.19083969465648856,0.0009002685546875
-0.007633587786259542,-3.2595419847328246,0.03816793893129771,0.0009026527404785156
0.0,-3.6793893129770994,0.11450381679389313,0.0009033679962158203
0.10687022900763359,-3.816793893129771,0.12213740458015267,0.0008997917175292969
0.15267175572519084,-3.549618320610687,0.16030534351145037,0.0009021759033203125
0.07633587786259542,-3.450381679389313,0.183206106870229,0.0009024143218994141
0.007633587786259542,-3.4732824427480917,-0.11450381679389313,0.0009014606475830078
0.04580152671755725,-3.366412213740458,-0.17557251908396945,0.0009031295776367188
0.04580152671755725,-3.3587786259541983,-0.03816793893129771,0.0009021759033203125
-0.07633587786259542,-3.33587786259542,-0.007633587786259542,0.0009024143218994141
0.007633587786259542,-3.435114503816794,-0.03816793893129771,0.0009028911590576172
0.06870229007633588,-3.5801526717557253,0.0,0.0009028911590576172
0.11450381679389313,-3.7099236641221376,0.1297709923664122,0.0008995532989501953
0.061068702290076333,-3.49618320610687,0.13740458015267176,0.0009019374847412109
-0.022900763358778626,-3.5343511450381677,0.0,0.0009014606475830078
0.08396946564885496,-3.450381679389313,-0.19083969465648856,0.0009007453918457031
0.08396946564885496,-3.3435114503816794,-0.015267175572519083,0.0009167194366455078
-0.12213740458015267,-3.5801526717557253,0.1984732824427481,0.0009057521820068359
-0.03816793893129771,-3.6259541984732824,0.22900763358778625,0.0009033679962158203
0.0,-3.282442748091603,0.022900763358778626,0.0009021759033203125
-0.07633587786259542,-3.2977099236641223,0.061068702290076333,0.0009019374847412109
-0.11450381679389313,-3.5877862595419847,0.06870229007633588,0.0009014606475830078
0.0,-3.6717557251908395,0.1450381679389313,0.0009026527404785156
0.20610687022900764,-3.427480916030534,0.061068702290076333,0.0008997917175292969
0.17557251908396945,-3.312977099236641,0.061068702290076333,0.0009028911590576172
0.06870229007633588,-3.4732824427480917,-0.015267175572519083,0.0009052753448486328
-0.022900763358778626,-3.50381679389313,-0.022900763358778626,0.0009026527404785156
0.015267175572519083,-3.366412213740458,-0.22137404580152673,0.0009028911590576172
0.022900763358778626,-3.312977099236641,-0.05343511450381679,0.0009026527404785156
0.030534351145038167,-3.3969465648854964,-0.03816793893129771,0.0009026527404785156
0.0,-3.427480916030534,0.08396946564885496,0.0009019374847412109
0.04580152671755725,-3.4885496183206106,0.061068702290076333,0.0009000301361083984
-0.05343511450381679,-3.435114503816794,0.0916030534351145,0.0009024143218994141
-0.183206106870229,-3.3969465648854964,0.13740458015267176,0.0009026527404785156
-0.022900763358778626,-3.366412213740458,0.2748091603053435,0.0009031295776367188
-0.03816793893129771,-3.49618320610687,0.22900763358778625,0.0009026527404785156
-0.061068702290076333,-3.5114503816793894,0.2900763358778626,0.0009014606475830078
0.007633587786259542,-3.5114503816793894,0.21374045801526717,0.0009021759033203125
0.022900763358778626,-3.519083969465649,-0.030534351145038167,0.0009028911590576172
-0.022900763358778626,-3.4732824427480917,-0.22900763358778625,0.0009026527404785156
0.061068702290076333,-3.33587786259542,-0.32061068702290074,0.0009024143218994141
0.007633587786259542,-3.435114503816794,-0.10687022900763359,0.0009024143218994141
0.007633587786259542,-3.5114503816793894,0.10687022900763359,0.0009026527404785156
0.0,-3.3740458015267176,0.2824427480916031,0.0009019374847412109
-0.022900763358778626,-3.5267175572519083,0.08396946564885496,0.0009000301361083984
-0.030534351145038167,-3.572519083969466,-0.061068702290076333,0.0009024143218994141
-0.07633587786259542,-3.5114503816793894,-0.08396946564885496,0.0009036064147949219
-0.04580152671755725,-3.366412213740458,0.03816793893129771,0.0009007453918457031
0.007633587786259542,-3.4656488549618323,-0.022900763358778626,0.0009007453918457031
0.007633587786259542,-3.450381679389313,0.12213740458015267,0.0009007453918457031
0.007633587786259542,-3.5801526717557253,0.06870229007633588,0.0009012222290039062
0.10687022900763359,-3.480916030534351,0.10687022900763359,0.0009031295776367188
0.08396946564885496,-3.435114503816794,0.10687022900763359,0.0009016990661621094
0.183206106870229,-3.49618320610687,0.08396946564885496,0.0009007453918457031
0.20610687022900764,-3.435114503816794,0.08396946564885496,0.0009000301361083984
0.007633587786259542,-3.3893129770992365,0.19083969465648856,0.0009016990661621094
-0.1297709923664122,-3.366412213740458,0.10687022900763359,0.0009009838104248047
-0.06870229007633588,-3.2213740458015265,0.16793893129770993,0.0009005069732666016
-0.007633587786259542,-3.2977099236641223,0.21374045801526717,0.0009007453918457031
0.03816793893129771,-3.33587786259542,0.20610687022900764,0.0009007453918457031
0.16793893129770993,-3.381679389312977,-0.03816793893129771,0.0009014606475830078
0.15267175572519084,-3.49618320610687,-0.10687022900763359,0.0009007453918457031
0.022900763358778626,-3.4122137404580153,-0.061068702290076333,0.0009014606475830078
-0.061068702290076333,-3.4198473282442747,-0.04580152671755725,0.0009009838104248047
0.0,-3.33587786259542,0.0,0.0009012222290039062
-0.0916030534351145,-3.3740458015267176,0.007633587786259542,0.0008974075317382812
-0.06870229007633588,-3.4427480916030535,-0.10687022900763359,0.0009005069732666016
0.04580152671755725,-3.480916030534351,-0.09923664122137404,0.0009007453918457031
0.05343511450381679,-3.450381679389313,-0.05343511450381679,0.0009005069732666016
0.08396946564885496,-3.4732824427480917,0.0,0.0009071826934814453
0.061068702290076333,-3.4580152671755724,0.0916030534351145,0.0009012222290039062
-0.10687022900763359,-3.564885496183206,0.007633587786259542,0.0009021759033203125
-0.16030534351145037,-3.50381679389313,-0.007633587786259542,0.0009026527404785156
-0.03816793893129771,-3.3969465648854964,-0.0916030534351145,0.0009033679962158203
0.07633587786259542,-3.16793893129771,-0.03816793893129771,0.0009028911590576172
0.12213740458015267,-3.1603053435114505,-0.015267175572519083,0.0009024143218994141
0.183206106870229,-3.2519083969465647,0.06870229007633588,0.0009024143218994141
-0.007633587786259542,-3.450381679389313,0.061068702290076333,0.0009024143218994141
-0.09923664122137404,-3.404580152671756,0.061068702290076333,0.0009028911590576172
0.0,-3.3969465648854964,0.11450381679389313,0.0009019374847412109
-0.007633587786259542,-3.5267175572519083,0.15267175572519084,0.0009005069732666016
0.015267175572519083,-3.50381679389313,-0.030534351145038167,0.0009026527404785156
0.16030534351145037,-3.450381679389313,-0.12213740458015267,0.0009033679962158203
0.20610687022900764,-3.49618320610687,-0.20610687022900764,0.0009019374847412109
0.15267175572519084,-3.5419847328244276,-0.10687022900763359,0.0009028911590576172
0.10687022900763359,-3.519083969465649,-0.183206106870229,0.0009019374847412109
0.0916030534351145,-3.4198473282442747,-0.11450381679389313,0.0009026527404785156
-0.007633587786259542,-3.549618320610687,0.03816793893129771,0.0010063648223876953
0.007633587786259542,-3.6564885496183206,0.007633587786259542,0.0009074211120605469
0.06870229007633588,-3.5572519083969465,0.09923664122137404,0.0009033679962158203
0.12213740458015267,-3.4580152671755724,-0.08396946564885496,0.0009024143218994141
0.13740458015267176,-3.33587786259542,-0.2366412213740458,0.0009112358093261719
0.0916030534351145,-3.5419847328244276,-0.22137404580152673,0.0009033679962158203
-0.03816793893129771,-3.5877862595419847,-0.05343511450381679,0.0009028911590576172
-0.05343511450381679,-3.687022900763359,-0.022900763358778626,0.0009031295776367188
-0.06870229007633588,-3.648854961832061,0.007633587786259542,0.0009036064147949219
0.007633587786259542,-3.5801526717557253,0.0,0.0009019374847412109
0.16793893129770993,-3.3740458015267176,-0.007633587786259542,0.0009012222290039062
0.015267175572519083,-3.381679389312977,-0.10687022900763359,0.0009024143218994141
-0.04580152671755725,-3.4732824427480917,-0.022900763358778626,0.0009028911590576172
-0.04580152671755725,-3.5572519083969465,0.0916030534351145,0.0009024143218994141
-0.09923664122137404,-3.564885496183206,0.3435114503816794,0.0009024143218994141
0.022900763358778626,-3.6717557251908395,0.17557251908396945,0.0009024143218994141
0.10687022900763359,-3.49618320610687,0.05343511450381679,0.0009038448333740234
0.07633587786259542,-3.4656488549618323,-0.1450381679389313,0.0009119510650634766
0.09923664122137404,-3.4656488549618323,-0.21374045801526717,0.0009019374847412109
0.022900763358778626,-3.450381679389313,-0.17557251908396945,0.0009021759033203125
-0.007633587786259542,-3.480916030534351,0.05343511450381679,0.0009026527404785156
0.015267175572519083,-3.3740458015267176,0.09923664122137404,0.0009028911590576172
0.061068702290076333,-3.3206106870229006,0.12213740458015267,0.0009014606475830078
-0.015267175572519083,-3.2977099236641223,0.183206106870229,0.0009016990661621094
-0.015267175572519083,-3.3893129770992365,0.2366412213740458,0.0009019374847412109
-0.022900763358778626,-3.6106870229007635,0.07633587786259542,0.0009024143218994141
0.0,-3.595419847328244,-0.0916030534351145,0.0009031295776367188
0.0916030534351145,-3.480916030534351,-0.12213740458015267,0.0009002685546875
0.10687022900763359,-3.4580152671755724,-0.10687022900763359,0.0009019374847412109
0.007633587786259542,-3.3587786259541983,-0.09923664122137404,0.0009031295776367188
-0.11450381679389313,-3.4580152671755724,0.007633587786259542,0.0009033679962158203
-0.16793893129770993,-3.564885496183206,0.16030534351145037,0.0009016990661621094
-0.10687022900763359,-3.5267175572519083,0.04580152671755725,0.0009026527404785156
-0.07633587786259542,-3.4427480916030535,-0.05343511450381679,0.0009028911590576172
-0.07633587786259542,-3.3893129770992365,-0.0916030534351145,0.0009038448333740234
0.007633587786259542,-3.5267175572519083,0.04580152671755725,0.0009019374847412109
0.08396946564885496,-3.572519083969466,0.022900763358778626,0.0009019374847412109
0.2366412213740458,-3.4656488549618323,0.183206106870229,0.0009019374847412109
0.2824427480916031,-3.4427480916030535,0.1984732824427481,0.0009009838104248047
0.12213740458015267,-3.450381679389313,-0.022900763358778626,0.0009021759033203125
0.007633587786259542,-3.618320610687023,-0.1297709923664122,0.0009021759033203125
0.08396946564885496,-3.7404580152671754,0.007633587786259542,0.0009031295776367188
0.09923664122137404,-3.519083969465649,0.007633587786259542,0.0009033679962158203
0.08396946564885496,-3.404580152671756,0.09923664122137404,0.0009026527404785156
0.08396946564885496,-3.5114503816793894,-0.03816793893129771,0.0009012222290039062
0.13740458015267176,-3.564885496183206,-0.007633587786259542,0.0009019374847412109
0.030534351145038167,-3.4198473282442747,-0.05343511450381679,0.0009024143218994141
-0.05343511450381679,-3.5114503816793894,0.12213740458015267,0.0009026527404785156
0.015267175572519083,-3.6717557251908395,0.183206106870229,0.0009028911590576172
0.0,-3.732824427480916,0.05343511450381679,0.0009009838104248047
-0.05343511450381679,-3.49618320610687,-0.07633587786259542,0.0009000301361083984
0.007633587786259542,-3.366412213740458,0.0,0.0009024143218994141
-0.022900763358778626,-3.3435114503816794,0.07633587786259542,0.0009005069732666016
0.030534351145038167,-3.4732824427480917,0.10687022900763359,0.0009019374847412109
0.10687022900763359,-3.5343511450381677,0.22137404580152673,0.0009021759033203125
0.16030534351145037,-3.3893129770992365,0.061068702290076333,0.0009019374847412109
0.061068702290076333,-3.3435114503816794,-0.007633587786259542,0.0009188652038574219
0.022900763358778626,-3.4427480916030535,-0.04580152671755725,0.0009033679962158203
-0.061068702290076333,-3.5343511450381677,-0.06870229007633588,0.0009026527404785156
0.12213740458015267,-3.564885496183206,0.007633587786259542,0.0009028911590576172
0.08396946564885496,-3.6259541984732824,0.030534351145038167,0.0009012222290039062
-0.007633587786259542,-3.633587786259542,0.022900763358778626,0.0009028911590576172
0.04580152671755725,-3.5801526717557253,0.04580152671755725,0.0009019374847412109
0.022900763358778626,-3.5343511450381677,-0.061068702290076333,0.0009016990661621094
0.015267175572519083,-3.404580152671756,-0.007633587786259542,0.0009021759033203125
-0.12213740458015267,-3.4198473282442747,0.1297709923664122,0.0009031295776367188
-0.15267175572519084,-3.572519083969466,0.16030534351145037,0.0009021759033203125
-0.0916030534351145,-3.732824427480916,0.2595419847328244,0.0009019374847412109
-0.03816793893129771,-3.7404580152671754,0.1984732824427481,0.0009019374847412109
0.12213740458015267,-3.6564885496183206,-0.022900763358778626,0.0009024143218994141
0.15267175572519084,-3.549618320610687,0.05343511450381679,0.0009028911590576172
-0.022900763358778626,-3.49618320610687,0.0916030534351145,0.0009031295776367188
-0.20610687022900764,-3.564885496183206,0.17557251908396945,0.0009021759033203125
-0.21374045801526717,-3.618320610687023,0.05343511450381679,0.0009028911590576172
-0.007633587786259542,-3.7022900763358777,0.16030534351145037,0.0009026527404785156
0.04580152671755725,-3.6793893129770994,0.15267175572519084,0.0009016990661621094
0.04580152671755725,-3.49618320610687,0.12213740458015267,0.0009016990661621094
0.08396946564885496,-3.4427480916030535,-0.16030534351145037,0.0009019374847412109
0.022900763358778626,-3.4580152671755724,-0.06870229007633588,0.0009024143218994141
0.061068702290076333,-3.4198473282442747,-0.08396946564885496,0.0009031295776367188
0.1450381679389313,-3.4580152671755724,-0.06870229007633588,0.0009019374847412109
0.07633587786259542,-3.480916030534351,0.0,0.0009024143218994141
-0.015267175572519083,-3.4122137404580153,0.022900763358778626,0.0009000301361083984
-0.015267175572519083,-3.480916030534351,0.015267175572519083,0.0009028911590576172
-0.007633587786259542,-3.4885496183206106,-0.061068702290076333,0.0009019374847412109
-0.09923664122137404,-3.3969465648854964,0.007633587786259542,0.0009031295776367188
-0.13740458015267176,-3.564885496183206,-0.15267175572519084,0.0009031295776367188
-0.022900763358778626,-3.6793893129770994,-0.17557251908396945,0.0009031295776367188
0.0916030534351145,-3.49618320610687,-0.0916030534351145,0.0009024143218994141
0.11450381679389313,-3.5267175572519083,-0.015267175572519083,0.0009012222290039062
0.11450381679389313,-3.5343511450381677,0.007633587786259542,0.0009019374847412109
0.022900763358778626,-3.4580152671755724,0.030534351145038167,0.0009019374847412109
-0.05343511450381679,-3.519083969465649,0.0,0.0009031295776367188
0.015267175572519083,-3.4732824427480917,0.19083969465648856,0.0009005069732666016
0.007633587786259542,-3.4198473282442747,0.183206106870229,0.0009021759033203125
-0.007633587786259542,-3.3893129770992365,0.007633587786259542,0.0009019374847412109
-0.11450381679389313,-3.4885496183206106,-0.030534351145038167,0.0009026527404785156
-0.16793893129770993,-3.480916030534351,0.007633587786259542,0.0009024143218994141
-0.03816793893129771,-3.3587786259541983,-0.030534351145038167,0.0009038448333740234
-0.05343511450381679,-3.3893129770992365,0.022900763358778626,0.0010135173797607422
-0.022900763358778626,-3.572519083969466,0.007633587786259542,0.0009086132049560547
0.007633587786259542,-3.5877862595419847,0.16030534351145037,0.0009045600891113281
-0.1297709923664122,-3.564885496183206,0.183206106870229,0.0009019374847412109
-0.007633587786259542,-3.618320610687023,0.11450381679389313,0.0009024143218994141
0.16793893129770993,-3.6412213740458017,0.12213740458015267,0.0009026527404785156
0.1450381679389313,-3.427480916030534,0.1450381679389313,0.0009021759033203125
-0.06870229007633588,-3.3282442748091605,0.03816793893129771,0.0009009838104248047
-0.030534351145038167,-3.1908396946564888,0.007633587786259542,0.0009026527404785156
0.0,-3.145038167938931,0.0916030534351145,0.0009028911590576172
0.03816793893129771,-3.450381679389313,0.04580152671755725,0.0009007453918457031
0.0,-3.618320610687023,0.13740458015267176,0.0009012222290039062
-0.06870229007633588,-3.4198473282442747,-0.06870229007633588,0.0009002685546875
-0.022900763358778626,-3.3969465648854964,-0.09923664122137404,0.0009019374847412109
0.17557251908396945,-3.5419847328244276,-0.061068702290076333,0.0009026527404785156
0.3435114503816794,-3.4198473282442747,-0.05343511450381679,0.0009028911590576172
0.20610687022900764,-3.4732824427480917,-0.08396946564885496,0.0009019374847412109
0.1297709923664122,-3.5267175572519083,0.04580152671755725,0.0009026527404785156
-0.09923664122137404,-3.3282442748091605,0.04580152671755725,0.0009024143218994141
-0.16030534351145037,-3.2061068702290076,-0.022900763358778626,0.0009031295776367188
-0.030534351145038167,-3.2519083969465647,-0.13740458015267176,0.0009019374847412109
0.12213740458015267,-3.381679389312977,-0.11450381679389313,0.0009021759033203125
0.061068702290076333,-3.6412213740458017,0.030534351145038167,0.0009024143218994141
0.061068702290076333,-3.6030534351145036,0.0,0.0009028911590576172
-0.007633587786259542,-3.4427480916030535,-0.07633587786259542,0.0009019374847412109
-0.15267175572519084,-3.2977099236641223,-0.05343511450381679,0.0009024143218994141
-0.2748091603053435,-3.3587786259541983,-0.0916030534351145,0.0009026527404785156
-0.0916030534351145,-3.564885496183206,-0.007633587786259542,0.0009031295776367188
0.15267175572519084,-3.6946564885496183,-0.07633587786259542,0.0009028911590576172
0.17557251908396945,-3.572519083969466,-0.07633587786259542,0.0009019374847412109
0.007633587786259542,-3.4656488549618323,0.007633587786259542,0.0009024143218994141
0.07633587786259542,-3.4656488549618323,0.015267175572519083,0.0009019374847412109
0.08396946564885496,-3.4122137404580153,-0.007633587786259542,0.0009021759033203125
0.17557251908396945,-3.5572519083969465,0.08396946564885496,0.0009024143218994141
0.11450381679389313,-3.6564885496183206,0.022900763358778626,0.0009021759033203125
0.03816793893129771,-3.618320610687023,0.06870229007633588,0.0009021759033203125
0.10687022900763359,-3.5419847328244276,0.07633587786259542,0.0009019374847412109
0.1450381679389313,-3.5343511450381677,0.13740458015267176,0.0009024143218994141
0.16030534351145037,-3.717557251908397,0.10687022900763359,0.0009000301361083984
0.16793893129770993,-3.6030534351145036,0.0,0.0009009838104248047
0.17557251908396945,-3.4732824427480917,0.03816793893129771,0.0008993148803710938
0.030534351145038167,-3.366412213740458,-0.03816793893129771,0.0009064674377441406
0.015267175572519083,-3.435114503816794,-0.1450381679389313,0.0009033679962158203
0.0,-3.480916030534351,-0.10687022900763359,0.0009026527404785156
0.022900763358778626,-3.4427480916030535,0.1450381679389313,0.0009002685546875
0.015267175572519083,-3.3969465648854964,0.2595419847328244,0.0009014606475830078
0.1297709923664122,-3.4122137404580153,0.31297709923664124,0.0009026527404785156
0.12213740458015267,-3.4198473282442747,0.10687022900763359,0.0009009838104248047
0.09923664122137404,-3.435114503816794,-0.015267175572519083,0.0009284019470214844
-0.0916030534351145,-3.3740458015267176,-0.030534351145038167,0.0009081363677978516
-0.08396946564885496,-3.4198473282442747,-0.007633587786259542,0.0009050369262695312
0.04580152671755725,-3.427480916030534,-0.015267175572519083,0.0009005069732666016
0.16793893129770993,-3.351145038167939,0.04580152671755725,0.0009024143218994141
0.07633587786259542,-3.4732824427480917,0.20610687022900764,0.0009033679962158203
0.030534351145038167,-3.6030534351145036,0.183206106870229,0.0009016990661621094
0.05343511450381679,-3.427480916030534,0.13740458015267176,0.0009038448333740234
0.061068702290076333,-3.4198473282442747,0.11450381679389313,0.0009021759033203125
-0.007633587786259542,-3.3969465648854964,0.10687022900763359,0.0009021759033203125
-0.11450381679389313,-3.3969465648854964,0.04580152671755725,0.0009021759033203125
0.030534351145038167,-3.4122137404580153,-0.05343511450381679,0.0009033679962158203
0.04580152671755725,-3.450381679389313,0.10687022900763359,0.0009021759033203125
-0.007633587786259542,-3.549618320610687,0.0916030534351145,0.0009016990661621094
0.0,-3.5877862595419847,-0.03816793893129771,0.0009021759033203125
0.030534351145038167,-3.549618320610687,-0.20610687022900764,0.0009019374847412109
-0.061068702290076333,-3.5267175572519083,-0.022900763358778626,0.0009024143218994141
-0.03816793893129771,-3.6564885496183206,0.05343511450381679,0.0009031295776367188
-0.04580152671755725,-3.618320610687023,0.10687022900763359,0.0009024143218994141
0.16030534351145037,-3.4198473282442747,0.07633587786259542,0.0009019374847412109
0.25190839694656486,-3.2595419847328246,0.0,0.0009026527404785156
0.11450381679389313,-3.2977099236641223,-0.03816793893129771,0.0009002685546875
-0.022900763358778626,-3.267175572519084,-0.0916030534351145,0.0009021759033203125
-0.06870229007633588,-3.2519083969465647,-0.06870229007633588,0.0009021759033203125
0.007633587786259542,-3.213740458015267,-0.07633587786259542,0.0009031295776367188
0.16030534351145037,-3.3282442748091605,0.09923664122137404,0.0009024143218994141
0.09923664122137404,-3.4122137404580153,0.0,0.0009021759033203125
0.0,-3.3893129770992365,-0.16793893129770993,0.0009005069732666016
-0.08396946564885496,-3.4732824427480917,-0.13740458015267176,0.0009005069732666016
-0.007633587786259542,-3.4427480916030535,0.04580152671755725,0.0009043216705322266
0.15267175572519084,-3.3587786259541983,0.1450381679389313,0.0009016990661621094
0.061068702290076333,-3.3893129770992365,0.0,0.0009009838104248047
-0.015267175572519083,-3.4732824427480917,0.0,0.0009002685546875
-0.015267175572519083,-3.5114503816793894,-0.007633587786259542,0.0009016990661621094
-0.03816793893129771,-3.366412213740458,-0.09923664122137404,0.0009021759033203125
-0.04580152671755725,-3.4427480916030535,-0.04580152671755725,0.0009016990661621094
0.015267175572519083,-3.4198473282442747,0.0,0.0009024143218994141
0.030534351145038167,-3.427480916030534,0.030534351145038167,0.0009009838104248047
-0.03816793893129771,-3.549618320610687,0.06870229007633588,0.0009005069732666016
0.19083969465648856,-3.6259541984732824,0.12213740458015267,0.0009026527404785156
0.08396946564885496,-3.6106870229007635,0.07633587786259542,0.0009019374847412109
-0.08396946564885496,-3.7404580152671754,-0.03816793893129771,0.0009019374847412109
-0.030534351145038167,-3.7480916030534353,-0.1297709923664122,0.0009028911590576172
0.015267175572519083,-3.633587786259542,-0.2366412213740458,0.0009019374847412109
0.06870229007633588,-3.49618320610687,0.007633587786259542,0.0009021759033203125
-0.015267175572519083,-3.33587786259542,0.11450381679389313,0.0009024143218994141
-0.10687022900763359,-3.404580152671756,0.19083969465648856,0.0009026527404785156
-0.1450381679389313,-3.4656488549618323,0.0,0.0009016990661621094
0.015267175572519083,-3.7022900763358777,0.022900763358778626,0.0009005069732666016
0.2595419847328244,-3.66412213740458,0.13740458015267176,0.0009019374847412109
0.31297709923664124,-3.427480916030534,0.16793893129770993,0.0009014606475830078
0.16793893129770993,-3.3435114503816794,0.11450381679389313,0.0009024143218994141
0.0,-3.4198473282442747,0.11450381679389313,0.0009014606475830078
-0.1297709923664122,-3.633587786259542,-0.183206106870229,0.0010139942169189453
-0.15267175572519084,-3.404580152671756,-0.1450381679389313,0.0009088516235351562
-0.022900763358778626,-3.3206106870229006,-0.16030534351145037,0.0009043216705322266
0.061068702290076333,-3.435114503816794,0.03816793893129771,0.0009031295776367188
0.183206106870229,-3.3969465648854964,0.15267175572519084,0.0009028911590576172
0.16793893129770993,-3.3435114503816794,0.22137404580152673,0.0009021759033203125
0.17557251908396945,-3.6106870229007635,0.03816793893129771,0.0009031295776367188
0.1984732824427481,-3.618320610687023,-0.12213740458015267,0.0009012222290039062
0.16030534351145037,-3.618320610687023,-0.08396946564885496,0.0009009838104248047
-0.07633587786259542,-3.7786259541984735,0.09923664122137404,0.0009019374847412109
-0.08396946564885496,-3.5572519083969465,0.1297709923664122,0.0009019374847412109
0.0,-3.4656488549618323,0.08396946564885496,0.0009031295776367188
-0.022900763358778626,-3.564885496183206,0.17557251908396945,0.0008990764617919922
0.030534351145038167,-3.633587786259542,0.022900763358778626,0.0009019374847412109
-0.06870229007633588,-3.595419847328244,-0.0916030534351145,0.0009019374847412109
-0.06870229007633588,-3.381679389312977,-0.022900763358778626,0.0009031295776367188
0.030534351145038167,-3.3969465648854964,-0.03816793893129771,0.0009016990661621094
0.08396946564885496,-3.366412213740458,-0.061068702290076333,0.0009024143218994141
0.0916030534351145,-3.4427480916030535,0.04580152671755725,0.0009024143218994141
0.007633587786259542,-3.3740458015267176,0.05343511450381679,0.0009014606475830078
0.0,-3.4198473282442747,0.08396946564885496,0.0009021759033203125
-0.015267175572519083,-3.427480916030534,-0.007633587786259542,0.0008993148803710938
-0.07633587786259542,-3.366412213740458,0.061068702290076333,0.0009026527404785156
-0.21374045801526717,-3.49618320610687,0.0,0.0009016990661621094
-0.07633587786259542,-3.4732824427480917,0.015267175572519083,0.0009009838104248047
0.0,-3.404580152671756,0.08396946564885496,0.0009021759033203125
-0.030534351145038167,-3.480916030534351,0.0916030534351145,0.0008995532989501953
-0.030534351145038167,-3.549618320610687,-0.022900763358778626,0.0009024143218994141
0.022900763358778626,-3.381679389312977,0.09923664122137404,0.0009181499481201172
0.05343511450381679,-3.198473282442748,0.03816793893129771,0.0009026527404785156
-0.007633587786259542,-3.312977099236641,-0.007633587786259542,0.0009014606475830078
0.0,-3.6793893129770994,0.007633587786259542,0.0009016990661621094
-0.030534351145038167,-3.83206106870229,0.007633587786259542,0.0009000301361083984
-0.05343511450381679,-3.7404580152671754,0.007633587786259542,0.0009033679962158203
0.030534351145038167,-3.6564885496183206,0.10687022900763359,0.0009014606475830078
0.07633587786259542,-3.564885496183206,0.03816793893129771,0.0009016990661621094
0.0916030534351145,-3.618320610687023,0.030534351145038167,0.0009009838104248047
0.11450381679389313,-3.5114503816793894,0.1297709923664122,0.0009016990661621094
0.022900763358778626,-3.49618320610687,0.022900763358778626,0.0009009838104248047
-0.061068702290076333,-3.3740458015267176,-0.007633587786259542,0.0009016990661621094
-0.17557251908396945,-3.2519083969465647,-0.015267175572519083,0.0009026527404785156
-0.32061068702290074,-3.267175572519084,0.0,0.0009028911590576172
-0.007633587786259542,-3.4580152671755724,-0.26717557251908397,0.0009012222290039062
0.16793893129770993,-3.6106870229007635,-0.22137404580152673,0.0009026527404785156
0.08396946564885496,-3.6106870229007635,-0.1984732824427481,0.0009021759033203125
-0.030534351145038167,-3.50381679389313,-0.183206106870229,0.0009021759033203125
-0.09923664122137404,-3.5114503816793894,-0.09923664122137404,0.0009033679962158203
-0.061068702290076333,-3.564885496183206,0.03816793893129771,0.0009019374847412109
-0.061068702290076333,-3.50381679389313,0.13740458015267176,0.0009024143218994141
0.007633587786259542,-3.549618320610687,0.11450381679389313,0.0009021759033203125
-0.08396946564885496,-3.4580152671755724,-0.05343511450381679,0.0009019374847412109
-0.05343511450381679,-3.3969465648854964,0.022900763358778626,0.0009036064147949219
0.015267175572519083,-3.2977099236641223,0.08396946564885496,0.0009014606475830078
0.061068702290076333,-3.2213740458015265,0.13740458015267176,0.0009024143218994141
0.007633587786259542,-3.3435114503816794,0.06870229007633588,0.0009019374847412109
-0.061068702290076333,-3.6793893129770994,-0.015267175572519083,0.0009024143218994141
-0.08396946564885496,-3.7557251908396947,-0.030534351145038167,0.0009014606475830078
0.030534351145038167,-3.7404580152671754,0.03816793893129771,0.0009026527404785156
0.03816793893129771,-3.5419847328244276,0.12213740458015267,0.0009016990661621094
0.022900763358778626,-3.3969465648854964,0.20610687022900764,0.0009016990661621094
-0.07633587786259542,-3.2519083969465647,0.10687022900763359,0.0009012222290039062
-0.06870229007633588,-3.2748091603053435,-0.007633587786259542,0.0009024143218994141
0.0,-3.4122137404580153,-0.13740458015267176,0.0009024143218994141
0.11450381679389313,-3.4580152671755724,-0.16030534351145037,0.0009009838104248047
0.03816793893129771,-3.5114503816793894,-0.11450381679389313,0.0009026527404785156
0.022900763358778626,-3.381679389312977,-0.04580152671755725,0.0009026527404785156
0.12213740458015267,-3.49618320610687,0.16030534351145037,0.0009016990661621094
0.20610687022900764,-3.549618320610687,0.16793893129770993,0.0009014606475830078
0.1297709923664122,-3.5419847328244276,0.13740458015267176,0.0009024143218994141
-0.022900763358778626,-3.4656488549618323,-0.05343511450381679,0.0009012222290039062
-0.08396946564885496,-3.427480916030534,-0.12213740458015267,0.0009024143218994141
-0.022900763358778626,-3.4198473282442747,-0.007633587786259542,0.0009024143218994141
-0.022900763358778626,-3.404580152671756,0.11450381679389313,0.0009024143218994141
-0.1297709923664122,-3.2900763358778624,0.022900763358778626,0.0009024143218994141
-0.08396946564885496,-3.435114503816794,0.183206106870229,0.0009014606475830078
-0.03816793893129771,-3.6412213740458017,0.061068702290076333,0.0009014606475830078
-0.03816793893129771,-3.480916030534351,-0.10687022900763359,0.0009024143218994141
-0.04580152671755725,-3.4656488549618323,-0.08396946564885496,0.0009031295776367188
0.03816793893129771,-3.50381679389313,-0.007633587786259542,0.0009019374847412109
-0.022900763358778626,-3.4427480916030535,-0.061068702290076333,0.0009014606475830078
-0.030534351145038167,-3.4198473282442747,0.04580152671755725,0.0009026527404785156
0.007633587786259542,-3.2977099236641223,0.13740458015267176,0.0009016990661621094
-0.030534351145038167,-3.312977099236641,0.1450381679389313,0.0009179115295410156
-0.007633587786259542,-3.33587786259542,-0.08396946564885496,0.0009024143218994141
0.015267175572519083,-3.404580152671756,-0.015267175572519083,0.0009021759033203125
0.12213740458015267,-3.4656488549618323,0.10687022900763359,0.0009024143218994141
0.11450381679389313,-3.2442748091603053,0.13740458015267176,0.0009021759033203125
-0.030534351145038167,-3.1374045801526718,0.183206106870229,0.0009012222290039062
-0.061068702290076333,-3.3587786259541983,0.07633587786259542,0.0009016990661621094
0.09923664122137404,-3.435114503816794,0.12213740458015267,0.0009021759033203125
0.13740458015267176,-3.4198473282442747,-0.007633587786259542,0.0009021759033203125
0.20610687022900764,-3.3587786259541983,0.030534351145038167,0.0009012222290039062
0.11450381679389313,-3.3435114503816794,0.16030534351145037,0.0009014606475830078
0.061068702290076333,-3.4427480916030535,0.2824427480916031,0.0009016990661621094
0.0,-3.4732824427480917,0.10687022900763359,0.0009014606475830078
-0.10687022900763359,-3.435114503816794,-0.022900763358778626,0.0009005069732666016
-0.07633587786259542,-3.312977099236641,-0.25190839694656486,0.0009016990661621094
0.022900763358778626,-3.450381679389313,-0.11450381679389313,0.0009024143218994141
0.061068702290076333,-3.404580152671756,0.12213740458015267,0.0009021759033203125
0.015267175572519083,-3.3587786259541983,0.183206106870229,0.0009024143218994141
-0.015267175572519083,-3.4580152671755724,0.04580152671755725,0.0009732246398925781
-0.030534351145038167,-3.572519083969466,0.030534351145038167,0.0009055137634277344
-0.08396946564885496,-3.4732824427480917,0.0,0.0009064674377441406
-0.03816793893129771,-3.5877862595419847,0.0916030534351145,0.0009014606475830078
0.1297709923664122,-3.4885496183206106,-0.09923664122137404,0.0009036064147949219
0.15267175572519084,-3.480916030534351,0.0,0.0009069442749023438
-0.20610687022900764,-3.450381679389313,0.0,0.0009012222290039062
-0.2900763358778626,-3.5877862595419847,-0.022900763358778626,0.0009007453918457031
-0.13740458015267176,-3.786259541984733,-0.21374045801526717,0.0009045600891113281
-0.13740458015267176,-3.66412213740458,-0.09923664122137404,0.0009019374847412109
-0.05343511450381679,-3.519083969465649,-0.030534351145038167,0.0009024143218994141
-0.10687022900763359,-3.4580152671755724,-0.022900763358778626,0.0009028911590576172
-0.10687022900763359,-3.4198473282442747,0.007633587786259542,0.0009033679962158203
-0.007633587786259542,-3.450381679389313,0.06870229007633588,0.0009016990661621094
0.12213740458015267,-3.6030534351145036,0.20610687022900764,0.0009021759033203125
0.09923664122137404,-3.7022900763358777,0.183206106870229,0.0009019374847412109
0.06870229007633588,-3.687022900763359,0.11450381679389313,0.0009021759033203125
0.061068702290076333,-3.5877862595419847,0.007633587786259542,0.0009028911590576172
0.007633587786259542,-3.4122137404580153,0.007633587786259542,0.0009024143218994141
-0.022900763358778626,-3.236641221374046,0.06870229007633588,0.0009019374847412109
-0.10687022900763359,-3.3206106870229006,-0.030534351145038167,0.0009021759033203125
-0.08396946564885496,-3.3282442748091605,-0.061068702290076333,0.0009036064147949219
-0.04580152671755725,-3.549618320610687,-0.0916030534351145,0.0009024143218994141
0.022900763358778626,-3.687022900763359,-0.06870229007633588,0.0009024143218994141
0.07633587786259542,-3.5572519083969465,0.06870229007633588,0.0009021759033203125
-0.007633587786259542,-3.450381679389313,0.08396946564885496,0.0009019374847412109
-0.07633587786259542,-3.5343511450381677,0.16030534351145037,0.0009026527404785156
-0.030534351145038167,-3.4885496183206106,0.12213740458015267,0.0009016990661621094
0.015267175572519083,-3.4885496183206106,0.10687022900763359,0.0009019374847412109
0.007633587786259542,-3.2977099236641223,-0.07633587786259542,0.0009016990661621094
0.030534351145038167,-3.1755725190839694,-0.26717557251908397,0.0009024143218994141
0.022900763358778626,-3.2290076335877864,-0.2366412213740458,0.0009021759033203125
-0.05343511450381679,-3.3969465648854964,0.0,0.0009021759033203125
0.04580152671755725,-3.4656488549618323,0.0,0.0009009838104248047
-0.015267175572519083,-3.5114503816793894,0.022900763358778626,0.0008997917175292969
-0.07633587786259542,-3.5877862595419847,0.1450381679389313,0.0009024143218994141
0.015267175572519083,-3.5267175572519083,0.11450381679389313,0.0009016990661621094
0.16793893129770993,-3.33587786259542,0.05343511450381679,0.0009019374847412109
0.183206106870229,-3.3969465648854964,-0.11450381679389313,0.0009019374847412109
0.1450381679389313,-3.50381679389313,-0.03816793893129771,0.0009033679962158203
0.12213740458015267,-3.49618320610687,0.030534351145038167,0.0009007453918457031
0.15267175572519084,-3.435114503816794,0.13740458015267176,0.0009019374847412109
0.183206106870229,-3.4427480916030535,-0.15267175572519084,0.0009016990661621094
0.06870229007633588,-3.4885496183206106,-0.15267175572519084,0.0009024143218994141
-0.12213740458015267,-3.4427480916030535,0.0,0.0009021759033203125
-0.1297709923664122,-3.4580152671755724,0.04580152671755725,0.0009002685546875
0.015267175572519083,-3.4656488549618323,-0.0916030534351145,0.0009019374847412109
0.10687022900763359,-3.4885496183206106,0.061068702290076333,0.0009021759033203125
0.05343511450381679,-3.564885496183206,-0.007633587786259542,0.0009024143218994141
0.0,-3.4732824427480917,-0.022900763358778626,0.0009012222290039062
0.04580152671755725,-3.2595419847328246,0.061068702290076333,0.0009009838104248047
0.15267175572519084,-3.16793893129771,0.061068702290076333,0.0009014606475830078
0.05343511450381679,-3.4198473282442747,0.007633587786259542,0.0009019374847412109
0.061068702290076333,-3.564885496183206,0.030534351145038167,0.0009012222290039062
0.06870229007633588,-3.450381679389313,-0.1297709923664122,0.0009021759033203125
-0.007633587786259542,-3.3893129770992365,-0.015267175572519083,0.0009021759033203125
-0.06870229007633588,-3.404580152671756,0.007633587786259542,0.0009124279022216797
-0.13740458015267176,-3.3969465648854964,0.007633587786259542,0.0009031295776367188
-0.030534351145038167,-3.4122137404580153,0.06870229007633588,0.0009028911590576172
0.16793893129770993,-3.3740458015267176,0.12213740458015267,0.0009024143218994141
0.1450381679389313,-3.2290076335877864,0.13740458015267176,0.0009014606475830078
-0.03816793893129771,-3.366412213740458,0.20610687022900764,0.0009024143218994141
-0.04580152671755725,-3.5114503816793894,0.1450381679389313,0.0009014606475830078
-0.09923664122137404,-3.6946564885496183,0.1450381679389313,0.0009014606475830078
-0.16030534351145037,-3.5419847328244276,0.11450381679389313,0.0009026527404785156
-0.07633587786259542,-3.3282442748091605,0.0916030534351145,0.0009033679962158203
-0.022900763358778626,-3.2213740458015265,0.0916030534351145,0.0009016990661621094
0.0,-3.404580152671756,-0.061068702290076333,0.0009019374847412109
0.0916030534351145,-3.6564885496183206,-0.061068702290076333,0.0009002685546875
0.03816793893129771,-3.7022900763358777,-0.06870229007633588,0.0009012222290039062
-0.07633587786259542,-3.687022900763359,-0.007633587786259542,0.0009026527404785156
-0.1297709923664122,-3.595419847328244,-0.19083969465648856,0.0009014606475830078
-0.183206106870229,-3.549618320610687,-0.12213740458015267,0.0009028911590576172
-0.08396946564885496,-3.6106870229007635,-0.21374045801526717,0.0009019374847412109
-0.05343511450381679,-3.6717557251908395,-0.16793893129770993,0.0009036064147949219
-0.07633587786259542,-3.5801526717557253,-0.10687022900763359,0.0009021759033203125
0.06870229007633588,-3.50381679389313,0.015267175572519083,0.0009026527404785156
0.2748091603053435,-3.3740458015267176,-0.022900763358778626,0.0009019374847412109
0.21374045801526717,-3.236641221374046,0.022900763358778626,0.0009012222290039062
0.1297709923664122,-3.282442748091603,0.030534351145038167,0.0009055137634277344
0.061068702290076333,-3.519083969465649,0.12213740458015267,0.0009007453918457031
-0.03816793893129771,-3.4122137404580153,0.007633587786259542,0.0009016990661621094
-0.061068702290076333,-3.404580152671756,-0.07633587786259542,0.0009026527404785156
-0.07633587786259542,-3.50381679389313,-0.04580152671755725,0.0009038448333740234
0.1450381679389313,-3.4122137404580153,-0.07633587786259542,0.0009009838104248047
0.183206106870229,-3.4656488549618323,-0.183206106870229,0.0009019374847412109
-0.030534351145038167,-3.5419847328244276,-0.13740458015267176,0.0009016990661621094
0.0,-3.5114503816793894,-0.1297709923664122,0.0009031295776367188
0.022900763358778626,-3.4580152671755724,0.007633587786259542,0.0009002685546875
0.07633587786259542,-3.3435114503816794,0.007633587786259542,0.0009019374847412109
0.07633587786259542,-3.366412213740458,0.16030534351145037,0.0009019374847412109
0.007633587786259542,-3.4122137404580153,0.1297709923664122,0.0009014606475830078
0.007633587786259542,-3.49618320610687,0.007633587786259542,0.0009021759033203125
0.05343511450381679,-3.5343511450381677,0.030534351145038167,0.0009009838104248047
-0.030534351145038167,-3.427480916030534,0.007633587786259542,0.0009012222290039062
-0.03816793893129771,-3.4122137404580153,0.007633587786259542,0.0009024143218994141
0.04580152671755725,-3.4198473282442747,-0.06870229007633588,0.0009028911590576172
-0.030534351145038167,-3.480916030534351,0.022900763358778626,0.0009014606475830078
0.061068702290076333,-3.5343511450381677,0.07633587786259542,0.0009021759033203125
0.09923664122137404,-3.5114503816793894,0.19083969465648856,0.0009019374847412109
0.13740458015267176,-3.3893129770992365,0.15267175572519084,0.0010027885437011719
0.17557251908396945,-3.3206106870229006,0.19083969465648856,0.0009074211120605469
0.05343511450381679,-3.450381679389313,0.015267175572519083,0.0009024143218994141
-0.007633587786259542,-3.519083969465649,-0.030534351145038167,0.0009024143218994141
0.007633587786259542,-3.5572519083969465,-0.08396946564885496,0.0009026527404785156
-0.05343511450381679,-3.6106870229007635,0.05343511450381679,0.0009038448333740234
-0.07633587786259542,-3.49618320610687,-0.07633587786259542,0.0009019374847412109
0.06870229007633588,-3.427480916030534,-0.19083969465648856,0.0009021759033203125
0.061068702290076333,-3.6030534351145036,-0.1297709923664122,0.0009016990661621094
-0.12213740458015267,-3.618320610687023,0.06870229007633588,0.0009036064147949219
-0.09923664122137404,-3.7099236641221376,0.022900763358778626,0.0009016990661621094
0.03816793893129771,-3.435114503816794,0.0,0.0009024143218994141
0.12213740458015267,-3.435114503816794,-0.007633587786259542,0.0009000301361083984
0.06870229007633588,-3.519083969465649,0.007633587786259542,0.0009019374847412109
-0.030534351145038167,-3.5801526717557253,0.07633587786259542,0.0009024143218994141
-0.007633587786259542,-3.5572519083969465,0.03816793893129771,0.0009016990661621094
-0.030534351145038167,-3.633587786259542,0.0,0.0009019374847412109
-0.08396946564885496,-3.618320610687023,0.0,0.0009007453918457031
-0.05343511450381679,-3.648854961832061,0.03816793893129771,0.0009016990661621094
-0.0916030534351145,-3.5343511450381677,0.015267175572519083,0.0009043216705322266
-0.13740458015267176,-3.4427480916030535,-0.0916030534351145,0.0009038448333740234
0.04580152671755725,-3.4732824427480917,-0.1984732824427481,0.0009036064147949219
0.05343511450381679,-3.480916030534351,-0.06870229007633588,0.0009019374847412109
0.022900763358778626,-3.5877862595419847,0.007633587786259542,0.0009047985076904297
0.007633587786259542,-3.7786259541984735,0.1297709923664122,0.0009019374847412109
-0.08396946564885496,-3.6717557251908395,0.10687022900763359,0.0009024143218994141
-0.030534351145038167,-3.4427480916030535,0.04580152671755725,0.0009024143218994141
0.022900763358778626,-3.427480916030534,0.007633587786259542,0.0009050369262695312
-0.007633587786259542,-3.5114503816793894,-0.015267175572519083,0.0008990764617919922
0.03816793893129771,-3.549618320610687,-0.1297709923664122,0.0009260177612304688
0.05343511450381679,-3.7251908396946565,0.0,0.0009028911590576172
0.04580152671755725,-3.6946564885496183,0.0,0.0009045600891113281
-0.030534351145038167,-3.3740458015267176,0.022900763358778626,0.0008974075317382812
-0.061068702290076333,-3.33587786259542,0.0,0.0009028911590576172
-0.030534351145038167,-3.549618320610687,0.0,0.0009000301361083984
0.0,-3.6564885496183206,0.07633587786259542,0.0009002685546875
-0.03816793893129771,-3.549618320610687,0.2366412213740458,0.0009007453918457031
0.061068702290076333,-3.351145038167939,0.25190839694656486,0.0009012222290039062
0.07633587786259542,-3.3282442748091605,0.1984732824427481,0.0009031295776367188
0.07633587786259542,-3.3587786259541983,0.183206106870229,0.0009019374847412109
0.007633587786259542,-3.5343511450381677,0.06870229007633588,0.0009021759033203125
-0.015267175572519083,-3.7480916030534353,0.03816793893129771,0.0009031295776367188
-0.06870229007633588,-3.6564885496183206,0.015267175572519083,0.0009021759033203125
-0.04580152671755725,-3.4427480916030535,-0.022900763358778626,0.0009024143218994141
0.07633587786259542,-3.351145038167939,-0.1297709923664122,0.0009024143218994141
0.04580152671755725,-3.435114503816794,-0.11450381679389313,0.0009024143218994141
0.022900763358778626,-3.3969465648854964,-0.11450381679389313,0.0009016990661621094
-0.05343511450381679,-3.312977099236641,0.07633587786259542,0.0009031295776367188
-0.022900763358778626,-3.480916030534351,0.1297709923664122,0.0009019374847412109
-0.007633587786259542,-3.572519083969466,0.061068702290076333,0.0009024143218994141
0.007633587786259542,-3.5343511450381677,-0.1450381679389313,0.0009014606475830078
-0.015267175572519083,-3.4885496183206106,-0.061068702290076333,0.0009019374847412109
-0.007633587786259542,-3.3893129770992365,0.015267175572519083,0.0009021759033203125
0.007633587786259542,-3.282442748091603,0.1984732824427481,0.0009024143218994141
0.07633587786259542,-3.2748091603053435,0.17557251908396945,0.0009019374847412109
-0.030534351145038167,-3.3282442748091605,0.09923664122137404,0.0009012222290039062
-0.183206106870229,-3.3893129770992365,-0.03816793893129771,0.0009021759033203125
-0.1450381679389313,-3.4885496183206106,0.06870229007633588,0.0009026527404785156
-0.0916030534351145,-3.6259541984732824,-0.007633587786259542,0.0009028911590576172
0.007633587786259542,-3.6793893129770994,-0.07633587786259542,0.0009016990661621094
0.015267175572519083,-3.381679389312977,0.05343511450381679,0.0009021759033203125
-0.08396946564885496,-3.450381679389313,0.015267175572519083,0.0009014606475830078
0.007633587786259542,-3.4198473282442747,0.007633587786259542,0.0009024143218994141
0.061068702290076333,-3.519083969465649,0.25190839694656486,0.0009012222290039062
0.0,-3.435114503816794,0.19083969465648856,0.0009016990661621094
0.11450381679389313,-3.4732824427480917,0.07633587786259542,0.0009257793426513672
0.1450381679389313,-3.4427480916030535,0.061068702290076333,0.0009009838104248047
0.16793893129770993,-3.4885496183206106,0.1450381679389313,0.0009019374847412109
0.030534351145038167,-3.633587786259542,0.2366412213740458,0.0009009838104248047
0.015267175572519083,-3.5267175572519083,0.05343511450381679,0.0009014606475830078
0.04580152671755725,-3.435114503816794,0.0,0.0009014606475830078
0.15267175572519084,-3.4885496183206106,0.022900763358778626,0.0009000301361083984
0.08396946564885496,-3.5572519083969465,-0.03816793893129771,0.0009007453918457031
0.08396946564885496,-3.7786259541984735,-0.04580152671755725,0.0009019374847412109
0.05343511450381679,-3.786259541984733,-0.21374045801526717,0.0009019374847412109
0.13740458015267176,-3.66412213740458,-0.09923664122137404,0.0009021759033203125
0.10687022900763359,-3.4427480916030535,-0.015267175572519083,0.0009024143218994141
0.06870229007633588,-3.4732824427480917,0.05343511450381679,0.0009021759033203125
0.09923664122137404,-3.6106870229007635,0.015267175572519083,0.0009016990661621094
0.0916030534351145,-3.618320610687023,-0.04580152671755725,0.0009014606475830078
0.061068702290076333,-3.7099236641221376,0.1297709923664122,0.0009021759033203125
0.13740458015267176,-3.4580152671755724,0.10687022900763359,0.0009007453918457031
0.1297709923664122,-3.3893129770992365,-0.09923664122137404,0.0009012222290039062
0.061068702290076333,-3.4885496183206106,-0.31297709923664124,0.0009021759033203125
0.007633587786259542,-3.549618320610687,-0.21374045801526717,0.0009036064147949219
0.0,-3.4656488549618323,-0.16793893129770993,0.0009033679962158203
-0.030534351145038167,-3.3893129770992365,-0.07633587786259542,0.0009009838104248047
-0.022900763358778626,-3.4198473282442747,-0.1984732824427481,0.0009028911590576172
0.09923664122137404,-3.5419847328244276,-0.10687022900763359,0.0009016990661621094
0.20610687022900764,-3.6030534351145036,-0.08396946564885496,0.0009028911590576172
0.1450381679389313,-3.480916030534351,-0.061068702290076333,0.0009014606475830078
-0.007633587786259542,-3.3969465648854964,-0.09923664122137404,0.0009019374847412109
-0.04580152671755725,-3.3969465648854964,-0.007633587786259542,0.0009043216705322266
-0.16030534351145037,-3.3893129770992365,0.007633587786259542,0.0009038448333740234
-0.16793893129770993,-3.435114503816794,0.030534351145038167,0.0009021759033203125
0.06870229007633588,-3.366412213740458,0.061068702290076333,0.0009024143218994141
0.16793893129770993,-3.366412213740458,0.022900763358778626,0.0009016990661621094
0.05343511450381679,-3.5114503816793894,0.07633587786259542,0.0009014606475830078
0.0,-3.427480916030534,-0.05343511450381679,0.0009582042694091797
0.16030534351145037,-3.49618320610687,-0.08396946564885496,0.0009131431579589844
0.12213740458015267,-3.381679389312977,-0.10687022900763359,0.0009033679962158203
0.0,-3.3740458015267176,0.007633587786259542,0.0010602474212646484
-0.022900763358778626,-3.404580152671756,0.11450381679389313,0.0009112358093261719
-0.061068702290076333,-3.450381679389313,0.10687022900763359,0.0009007453918457031
-0.1450381679389313,-3.480916030534351,0.04580152671755725,0.0009031295776367188
-0.13740458015267176,-3.427480916030534,0.015267175572519083,0.0009024143218994141
0.0,-3.381679389312977,-0.09923664122137404,0.0009031295776367188
0.08396946564885496,-3.3053435114503817,0.007633587786259542,0.0009000301361083984
0.07633587786259542,-3.3740458015267176,-0.22900763358778625,0.0009081363677978516
0.17557251908396945,-3.3435114503816794,-0.1984732824427481,0.0009028911590576172
0.1450381679389313,-3.381679389312977,0.007633587786259542,0.0009031295776367188
0.03816793893129771,-3.3969465648854964,0.04580152671755725,0.0009021759033203125
0.05343511450381679,-3.4580152671755724,0.07633587786259542,0.0009012222290039062
0.030534351145038167,-3.480916030534351,0.03816793893129771,0.0009016990661621094
0.07633587786259542,-3.4732824427480917,0.007633587786259542,0.0009016990661621094
0.05343511450381679,-3.3969465648854964,0.015267175572519083,0.0009021759033203125
0.015267175572519083,-3.3969465648854964,0.09923664122137404,0.0009012222290039062
0.061068702290076333,-3.3282442748091605,0.007633587786259542,0.0009016990661621094
0.015267175572519083,-3.366412213740458,0.08396946564885496,0.0009021759033203125
-0.015267175572519083,-3.4122137404580153,0.19083969465648856,0.0009012222290039062
-0.09923664122137404,-3.5419847328244276,0.20610687022900764,0.0009026527404785156
-0.07633587786259542,-3.648854961832061,0.12213740458015267,0.0009019374847412109
0.04580152671755725,-3.6946564885496183,0.05343511450381679,0.0009019374847412109
0.12213740458015267,-3.66412213740458,0.09923664122137404,0.0009019374847412109
0.16030534351145037,-3.5877862595419847,0.05343511450381679,0.0009021759033203125
0.07633587786259542,-3.351145038167939,0.0,0.0009014606475830078
-0.007633587786259542,-3.549618320610687,0.030534351145038167,0.0009007453918457031
-0.05343511450381679,-3.6030534351145036,0.1450381679389313,0.0009019374847412109
-0.030534351145038167,-3.564885496183206,0.11450381679389313,0.0009031295776367188
-0.022900763358778626,-3.50381679389313,0.022900763358778626,0.0009016990661621094
0.0,-3.4656488549618323,0.13740458015267176,0.0009021759033203125
0.16793893129770993,-3.450381679389313,0.007633587786259542,0.0008997917175292969
0.1984732824427481,-3.4198473282442747,0.08396946564885496,0.0009014606475830078
0.05343511450381679,-3.33587786259542,0.08396946564885496,0.0009024143218994141
-0.007633587786259542,-3.4580152671755724,-0.03816793893129771,0.0009009838104248047
0.1984732824427481,-3.6259541984732824,-0.06870229007633588,0.0009064674377441406
0.16793893129770993,-3.6259541984732824,-0.030534351145038167,0.0009021759033203125
-0.015267175572519083,-3.50381679389313,-0.08396946564885496,0.0009026527404785156
0.007633587786259542,-3.404580152671756,-0.06870229007633588,0.0009019374847412109
-0.07633587786259542,-3.404580152671756,-0.06870229007633588,0.0009021759033203125
-0.09923664122137404,-3.5419847328244276,0.05343511450381679,0.0009016990661621094
-0.08396946564885496,-3.404580152671756,-0.03816793893129771,0.0009016990661621094
0.03816793893129771,-3.404580152671756,-0.007633587786259542,0.000904083251953125
-0.007633587786259542,-3.435114503816794,0.0,0.0009019374847412109
-0.05343511450381679,-3.6030534351145036,-0.09923664122137404,0.0009002685546875
0.06870229007633588,-3.404580152671756,0.030534351145038167,0.0009024143218994141
0.022900763358778626,-3.49618320610687,-0.015267175572519083,0.0009021759033203125
-0.06870229007633588,-3.648854961832061,-0.0916030534351145,0.0009014606475830078
-0.09923664122137404,-3.6793893129770994,0.07633587786259542,0.0009014606475830078
-0.061068702290076333,-3.6717557251908395,0.1297709923664122,0.0009014606475830078
0.10687022900763359,-3.519083969465649,0.022900763358778626,0.0009322166442871094
0.022900763358778626,-3.4732824427480917,-0.05343511450381679,0.0009031295776367188
0.0,-3.564885496183206,-0.22137404580152673,0.0009026527404785156
0.015267175572519083,-3.6412213740458017,-0.007633587786259542,0.0009007453918457031
0.061068702290076333,-3.5572519083969465,0.13740458015267176,0.0009024143218994141
-0.007633587786259542,-3.3587786259541983,0.0,0.0009026527404785156
-0.0916030534351145,-3.2977099236641223,-0.12213740458015267,0.0009000301361083984
-0.0916030534351145,-3.33587786259542,0.061068702290076333,0.0009026527404785156
-0.0916030534351145,-3.3740458015267176,0.03816793893129771,0.0009014606475830078
-0.15267175572519084,-3.618320610687023,0.06870229007633588,0.0009024143218994141
-0.030534351145038167,-3.6412213740458017,-0.030534351145038167,0.0009019374847412109
0.06870229007633588,-3.450381679389313,-0.1450381679389313,0.0009026527404785156
0.0,-3.50381679389313,0.0,0.0009033679962158203
0.03816793893129771,-3.5801526717557253,0.10687022900763359,0.0009026527404785156
0.0916030534351145,-3.549618320610687,0.030534351145038167,0.0009021759033203125
0.030534351145038167,-3.4732824427480917,0.0,0.0009016990661621094
-0.061068702290076333,-3.381679389312977,0.022900763358778626,0.0009007453918457031
-0.10687022900763359,-3.435114503816794,0.10687022900763359,0.0009024143218994141
-0.030534351145038167,-3.4580152671755724,0.15267175572519084,0.0009033679962158203
0.007633587786259542,-3.3740458015267176,-0.007633587786259542,0.0009019374847412109
0.007633587786259542,-3.2977099236641223,-0.11450381679389313,0.0009024143218994141
0.0,-3.351145038167939,-0.030534351145038167,0.0009021759033203125
0.007633587786259542,-3.4427480916030535,0.15267175572519084,0.0009002685546875
0.007633587786259542,-3.5419847328244276,0.16793893129770993,0.0009024143218994141
0.015267175572519083,-3.5572519083969465,0.015267175572519083,0.0009016990661621094
0.10687022900763359,-3.4656488549618323,-0.061068702290076333,0.0009019374847412109
0.12213740458015267,-3.50381679389313,0.0916030534351145,0.0009024143218994141
0.16030534351145037,-3.5419847328244276,0.11450381679389313,0.0009021759033203125
0.015267175572519083,-3.633587786259542,0.20610687022900764,0.0009016990661621094
-0.08396946564885496,-3.6412213740458017,-0.05343511450381679,0.0009016990661621094
-0.030534351145038167,-3.595419847328244,-0.05343511450381679,0.0009737014770507812
0.04580152671755725,-3.633587786259542,0.007633587786259542,0.0009131431579589844
0.10687022900763359,-3.595419847328244,0.0,0.0009059906005859375
0.05343511450381679,-3.4427480916030535,-0.061068702290076333,0.0009036064147949219
-0.1297709923664122,-3.381679389312977,0.015267175572519083,0.0009047985076904297
-0.15267175572519084,-3.4732824427480917,0.11450381679389313,0.0009045600891113281
-0.05343511450381679,-3.5114503816793894,0.1297709923664122,0.000904083251953125
0.03816793893129771,-3.33587786259542,0.022900763358778626,0.0009031295776367188
0.16030534351145037,-3.49618320610687,-0.007633587786259542,0.0009028911590576172
0.061068702290076333,-3.687022900763359,0.0,0.0009031295776367188
0.05343511450381679,-3.854961832061069,0.0916030534351145,0.0009014606475830078
0.0916030534351145,-3.6412213740458017,0.06870229007633588,0.0009016990661621094
0.20610687022900764,-3.3969465648854964,0.08396946564885496,0.0009024143218994141
0.12213740458015267,-3.3893129770992365,-0.03816793893129771,0.0009021759033203125
0.03816793893129771,-3.5572519083969465,-0.11450381679389313,0.0009033679962158203
0.007633587786259542,-3.595419847328244,0.061068702290076333,0.0009109973907470703
-0.022900763358778626,-3.5114503816793894,0.20610687022900764,0.0009143352508544922
0.0916030534351145,-3.4122137404580153,0.21374045801526717,0.0009069442749023438
0.16030534351145037,-3.366412213740458,0.25190839694656486,0.0009038448333740234
0.10687022900763359,-3.312977099236641,-0.030534351145038167,0.000904083251953125
0.09923664122137404,-3.4427480916030535,-0.10687022900763359,0.0009021759033203125
0.015267175572519083,-3.5114503816793894,0.022900763358778626,0.0009024143218994141
0.015267175572519083,-3.3587786259541983,0.022900763358778626,0.0010082721710205078
-0.03816793893129771,-3.4656488549618323,0.15267175572519084,0.0009145736694335938
-0.05343511450381679,-3.5419847328244276,0.13740458015267176,0.0009059906005859375
0.05343511450381679,-3.50381679389313,0.16793893129770993,0.0009090900421142578
0.03816793893129771,-3.435114503816794,-0.07633587786259542,0.0009028911590576172
0.06870229007633588,-3.5114503816793894,-0.05343511450381679,0.0009031295776367188
0.007633587786259542,-3.648854961832061,-0.04580152671755725,0.0009033679962158203
-0.022900763358778626,-3.8244274809160306,0.030534351145038167,0.0009019374847412109
-0.015267175572519083,-3.66412213740458,0.061068702290076333,0.0009033679962158203
0.061068702290076333,-3.549618320610687,0.17557251908396945,0.0009026527404785156
0.12213740458015267,-3.480916030534351,0.06870229007633588,0.0009031295776367188
-0.04580152671755725,-3.4885496183206106,0.015267175572519083,0.0009014606475830078
-0.08396946564885496,-3.564885496183206,-0.061068702290076333,0.0009026527404785156
0.030534351145038167,-3.5343511450381677,-0.030534351145038167,0.0009026527404785156
0.06870229007633588,-3.49618320610687,0.06870229007633588,0.0009028911590576172
0.08396946564885496,-3.4427480916030535,0.17557251908396945,0.0009005069732666016
-0.015267175572519083,-3.4580152671755724,0.11450381679389313,0.0009016990661621094
-0.12213740458015267,-3.3969465648854964,0.17557251908396945,0.0009026527404785156
-0.11450381679389313,-3.549618320610687,0.09923664122137404,0.0009024143218994141
0.09923664122137404,-3.519083969465649,0.007633587786259542,0.0009028911590576172
0.1450381679389313,-3.49618320610687,0.007633587786259542,0.0009012222290039062
0.08396946564885496,-3.4122137404580153,-0.08396946564885496,0.0009016990661621094
-0.03816793893129771,-3.3587786259541983,-0.061068702290076333,0.0009014606475830078
-0.061068702290076333,-3.4198473282442747,-0.03816793893129771,0.0009036064147949219
0.04580152671755725,-3.3969465648854964,0.04580152671755725,0.0009024143218994141
0.2366412213740458,-3.4427480916030535,0.022900763358778626,0.0009021759033203125
0.2366412213740458,-3.49618320610687,0.022900763358778626,0.0009019374847412109
0.17557251908396945,-3.618320610687023,-0.015267175572519083,0.0009014606475830078
0.007633587786259542,-3.435114503816794,0.007633587786259542,0.0009031295776367188
-0.06870229007633588,-3.404580152671756,0.0,0.0009014606475830078
0.007633587786259542,-3.450381679389313,-0.015267175572519083,0.000904083251953125
0.0916030534351145,-3.5267175572519083,-0.030534351145038167,0.0009024143218994141
0.16793893129770993,-3.5114503816793894,0.030534351145038167,0.0009031295776367188
0.1297709923664122,-3.427480916030534,0.007633587786259542,0.0009019374847412109
0.0,-3.2442748091603053,0.03816793893129771,0.0009014606475830078
-0.1450381679389313,-3.2290076335877864,0.12213740458015267,0.0009005069732666016
-0.1450381679389313,-3.351145038167939,-0.022900763358778626,0.0009016990661621094
-0.007633587786259542,-3.4732824427480917,0.07633587786259542,0.0009031295776367188
-0.030534351145038167,-3.4580152671755724,0.16793893129770993,0.0009021759033203125
-0.015267175572519083,-3.3969465648854964,0.1297709923664122,0.0009026527404785156
0.05343511450381679,-3.450381679389313,0.0,0.0009021759033203125
-0.022900763358778626,-3.4885496183206106,0.007633587786259542,0.0009016990661621094
-0.1297709923664122,-3.4732824427480917,0.03816793893129771,0.0009024143218994141
0.061068702290076333,-3.5267175572519083,0.0916030534351145,0.0009024143218994141
0.09923664122137404,-3.6259541984732824,-0.03816793893129771,0.0009014606475830078
0.16030534351145037,-3.5877862595419847,-0.05343511450381679,0.0009026527404785156
0.16793893129770993,-3.572519083969466,-0.08396946564885496,0.0009014606475830078
0.1450381679389313,-3.717557251908397,0.08396946564885496,0.0009021759033203125
0.19083969465648856,-3.633587786259542,0.07633587786259542,0.0009019374847412109
0.09923664122137404,-3.5114503816793894,0.06870229007633588,0.0009016990661621094
0.04580152671755725,-3.4122137404580153,0.08396946564885496,0.0009021759033203125
-0.05343511450381679,-3.282442748091603,0.030534351145038167,0.0009009838104248047
-0.04580152671755725,-3.3740458015267176,-0.015267175572519083,0.0009021759033203125
0.05343511450381679,-3.5267175572519083,0.07633587786259542,0.0009028911590576172
0.0916030534351145,-3.4580152671755724,0.007633587786259542,0.0009021759033203125
-0.022900763358778626,-3.450381679389313,-0.08396946564885496,0.0009014606475830078
-0.15267175572519084,-3.6717557251908395,-0.061068702290076333,0.0009026527404785156
-0.022900763358778626,-3.687022900763359,0.0916030534351145,0.0009026527404785156
0.0916030534351145,-3.4885496183206106,0.11450381679389313,0.0009012222290039062
0.09923664122137404,-3.3740458015267176,0.0,0.0009026527404785156
0.007633587786259542,-3.49618320610687,-0.03816793893129771,0.0008997917175292969
-0.007633587786259542,-3.5801526717557253,0.07633587786259542,0.0009021759033203125
0.0,-3.4656488549618323,0.015267175572519083,0.0009021759033203125
0.19083969465648856,-3.4427480916030535,0.0,0.0009007453918457031
0.19083969465648856,-3.4885496183206106,0.12213740458015267,0.0008995532989501953
-0.061068702290076333,-3.50381679389313,0.05343511450381679,0.0009016990661621094
-0.030534351145038167,-3.427480916030534,0.0916030534351145,0.0009014606475830078
0.19083969465648856,-3.2595419847328246,-0.06870229007633588,0.0009033679962158203
0.20610687022900764,-3.3053435114503817,-0.2366412213740458,0.0009019374847412109
0.0916030534351145,-3.4732824427480917,-0.1297709923664122,0.0009019374847412109
0.007633587786259542,-3.6259541984732824,0.0916030534351145,0.0009019374847412109
0.1297709923664122,-3.5419847328244276,-0.007633587786259542,0.0009016990661621094
0.12213740458015267,-3.5419847328244276,0.13740458015267176,0.0009031295776367188
0.09923664122137404,-3.633587786259542,0.26717557251908397,0.0009009838104248047
0.10687022900763359,-3.564885496183206,0.22900763358778625,0.0009016990661621094
0.04580152671755725,-3.5267175572519083,0.0,0.0009016990661621094
0.03816793893129771,-3.4122137404580153,-0.030534351145038167,0.0009002685546875
0.12213740458015267,-3.3587786259541983,0.007633587786259542,0.0009019374847412109
0.09923664122137404,-3.366412213740458,-0.030534351145038167,0.0009019374847412109
0.05343511450381679,-3.427480916030534,-0.04580152671755725,0.0009016990661621094
0.0916030534351145,-3.5114503816793894,0.007633587786259542,0.0009014606475830078
0.05343511450381679,-3.7099236641221376,0.12213740458015267,0.0009081363677978516
0.015267175572519083,-3.6106870229007635,0.1450381679389313,0.0009033679962158203
0.04580152671755725,-3.6030534351145036,-0.15267175572519084,0.0009016990661621094
0.0,-3.66412213740458,-0.16030534351145037,0.0009021759033203125
-0.1297709923664122,-3.572519083969466,-0.007633587786259542,0.0009019374847412109
-0.09923664122137404,-3.427480916030534,0.1450381679389313,0.0009016990661621094
-0.05343511450381679,-3.2900763358778624,0.16793893129770993,0.0009014606475830078
0.03816793893129771,-3.435114503816794,0.22900763358778625,0.0009021759033203125
0.13740458015267176,-3.49618320610687,0.15267175572519084,0.0009026527404785156
0.20610687022900764,-3.427480916030534,0.2748091603053435,0.0009024143218994141
0.16030534351145037,-3.4427480916030535,0.061068702290076333,0.0009007453918457031
0.04580152671755725,-3.4122137404580153,-0.022900763358778626,0.0009019374847412109
-0.030534351145038167,-3.3587786259541983,-0.007633587786259542,0.0009031295776367188
0.007633587786259542,-3.3053435114503817,-0.030534351145038167,0.0009033679962158203
0.12213740458015267,-3.381679389312977,-0.022900763358778626,0.0009024143218994141
-0.015267175572519083,-3.5267175572519083,-0.1450381679389313,0.0009024143218994141
-0.07633587786259542,-3.732824427480916,0.007633587786259542,0.0009028911590576172
-0.08396946564885496,-3.5419847328244276,0.10687022900763359,0.0009026527404785156
0.06870229007633588,-3.3053435114503817,0.10687022900763359,0.0009016990661621094
0.1450381679389313,-3.2213740458015265,-0.030534351145038167,0.0009899139404296875
0.1297709923664122,-3.351145038167939,0.015267175572519083,0.0009074211120605469
0.07633587786259542,-3.5114503816793894,-0.10687022900763359,0.0009031295776367188
0.183206106870229,-3.4427480916030535,-0.15267175572519084,0.0009038448333740234
0.15267175572519084,-3.4656488549618323,-0.03816793893129771,0.0009167194366455078
-0.03816793893129771,-3.3969465648854964,0.2366412213740458,0.0009124279022216797
-0.1450381679389313,-3.480916030534351,0.21374045801526717,0.0009067058563232422
0.015267175572519083,-3.519083969465649,0.10687022900763359,0.000904083251953125
0.03816793893129771,-3.5877862595419847,0.06870229007633588,0.0009016990661621094
0.030534351145038167,-3.480916030534351,0.07633587786259542,0.0009443759918212891
0.030534351145038167,-3.450381679389313,0.11450381679389313,0.0009119510650634766
0.08396946564885496,-3.5114503816793894,0.11450381679389313,0.0009067058563232422
0.0916030534351145,-3.6412213740458017,0.0,0.0008997917175292969
0.05343511450381679,-3.5877862595419847,-0.007633587786259542,0.0009007453918457031
-0.12213740458015267,-3.4732824427480917,0.1450381679389313,0.0009024143218994141
-0.15267175572519084,-3.450381679389313,0.09923664122137404,0.0009031295776367188
-0.007633587786259542,-3.5877862595419847,0.17557251908396945,0.0009033679962158203
0.022900763358778626,-3.648854961832061,0.12213740458015267,0.0009026527404785156
0.04580152671755725,-3.7022900763358777,0.11450381679389313,0.0009019374847412109
0.061068702290076333,-3.5572519083969465,-0.061068702290076333,0.0009021759033203125
-0.007633587786259542,-3.3282442748091605,-0.15267175572519084,0.0009033679962158203
-0.04580152671755725,-3.381679389312977,-0.007633587786259542,0.0009024143218994141
0.07633587786259542,-3.5877862595419847,0.25190839694656486,0.0009024143218994141
0.31297709923664124,-3.5267175572519083,0.07633587786259542,0.0009019374847412109
0.2748091603053435,-3.4885496183206106,0.07633587786259542,0.0009021759033203125
0.21374045801526717,-3.5572519083969465,0.06870229007633588,0.0009031295776367188
0.08396946564885496,-3.5877862595419847,0.10687022900763359,0.0009002685546875
0.0,-3.5419847328244276,0.06870229007633588,0.0009016990661621094
0.007633587786259542,-3.6946564885496183,0.13740458015267176,0.0009000301361083984
-0.1297709923664122,-3.7099236641221376,0.04580152671755725,0.0009036064147949219
-0.04580152671755725,-3.480916030534351,0.22900763358778625,0.0009024143218994141
0.1297709923664122,-3.3587786259541983,0.1297709923664122,0.0009024143218994141
0.21374045801526717,-3.4427480916030535,0.10687022900763359,0.0009012222290039062
0.06870229007633588,-3.5343511450381677,0.1297709923664122,0.0009021759033203125
0.04580152671755725,-3.381679389312977,0.08396946564885496,0.0009024143218994141
-0.015267175572519083,-3.3893129770992365,-0.04580152671755725,0.0009007453918457031
-0.007633587786259542,-3.5343511450381677,0.26717557251908397,0.0009031295776367188
0.030534351145038167,-3.633587786259542,0.022900763358778626,0.0009024143218994141
0.09923664122137404,-3.564885496183206,-0.08396946564885496,0.0009024143218994141
0.0,-3.549618320610687,-0.12213740458015267,0.0009014606475830078
0.0,-3.381679389312977,-0.1297709923664122,0.0009005069732666016
-0.07633587786259542,-3.3740458015267176,-0.06870229007633588,0.0009007453918457031
0.07633587786259542,-3.3053435114503817,-0.03816793893129771,0.0009043216705322266
0.03816793893129771,-3.404580152671756,0.16030534351145037,0.0009019374847412109
0.05343511450381679,-3.4656488549618323,0.16030534351145037,0.0009019374847412109
0.05343511450381679,-3.49618320610687,0.19083969465648856,0.0009016990661621094
-0.10687022900763359,-3.4580152671755724,0.05343511450381679,0.0009016990661621094
-0.12213740458015267,-3.427480916030534,-0.10687022900763359,0.0009024143218994141
0.015267175572519083,-3.4885496183206106,-0.25190839694656486,0.0009024143218994141
0.09923664122137404,-3.4885496183206106,-0.12213740458015267,0.0009026527404785156
0.10687022900763359,-3.3893129770992365,-0.015267175572519083,0.0009024143218994141
-0.030534351145038167,-3.2977099236641223,0.13740458015267176,0.0009033679962158203
-0.07633587786259542,-3.351145038167939,0.015267175572519083,0.0009021759033203125
0.0,-3.2595419847328246,-0.03816793893129771,0.0009026527404785156
0.10687022900763359,-3.4427480916030535,-0.13740458015267176,0.0009002685546875
0.1450381679389313,-3.5801526717557253,-0.19083969465648856,0.0009019374847412109
0.13740458015267176,-3.4732824427480917,0.015267175572519083,0.0009031295776367188
0.19083969465648856,-3.404580152671756,0.2595419847328244,0.0009016990661621094
0.183206106870229,-3.3053435114503817,0.29770992366412213,0.0009019374847412109
0.07633587786259542,-3.2748091603053435,0.2366412213740458,0.0009016990661621094
-0.10687022900763359,-3.4580152671755724,0.030534351145038167,0.0009031295776367188
0.015267175572519083,-3.4580152671755724,-0.16030534351145037,0.0009024143218994141
-0.07633587786259542,-3.480916030534351,-0.1450381679389313,0.0009021759033203125
-0.08396946564885496,-3.564885496183206,-0.16793893129770993,0.0009021759033203125
-0.015267175572519083,-3.5267175572519083,-0.183206106870229,0.0009338855743408203
0.07633587786259542,-3.3740458015267176,0.015267175572519083,0.0009043216705322266
0.13740458015267176,-3.2061068702290076,0.08396946564885496,0.0009026527404785156
0.11450381679389313,-3.3435114503816794,0.10687022900763359,0.0009019374847412109
-0.007633587786259542,-3.3206106870229006,0.05343511450381679,0.0009014606475830078
0.0,-3.3206106870229006,-0.022900763358778626,0.0009024143218994141
0.10687022900763359,-3.5343511450381677,-0.04580152671755725,0.0009000301361083984
0.1297709923664122,-3.687022900763359,-0.030534351145038167,0.0009019374847412109
0.06870229007633588,-3.6106870229007635,0.06870229007633588,0.0009024143218994141
0.13740458015267176,-3.5877862595419847,-0.015267175572519083,0.0009024143218994141
0.06870229007633588,-3.4885496183206106,-0.19083969465648856,0.0009016990661621094
0.0,-3.549618320610687,-0.10687022900763359,0.0009024143218994141
-0.030534351145038167,-3.5114503816793894,-0.05343511450381679,0.0009002685546875
0.0,-3.33587786259542,-0.07633587786259542,0.0009024143218994141
-0.007633587786259542,-3.2290076335877864,0.12213740458015267,0.0009007453918457031
-0.03816793893129771,-3.2061068702290076,0.19083969465648856,0.0009014606475830078
0.007633587786259542,-3.33587786259542,0.19083969465648856,0.0009024143218994141
-0.007633587786259542,-3.4427480916030535,0.04580152671755725,0.0009014606475830078
-0.04580152671755725,-3.480916030534351,-0.05343511450381679,0.0009028911590576172
0.030534351145038167,-3.4427480916030535,-0.09923664122137404,0.0009014606475830078
0.1297709923664122,-3.50381679389313,0.12213740458015267,0.0009019374847412109
0.03816793893129771,-3.4198473282442747,0.19083969465648856,0.0009024143218994141
0.03816793893129771,-3.33587786259542,0.10687022900763359,0.0009021759033203125
0.061068702290076333,-3.5114503816793894,0.030534351145038167,0.0009024143218994141
0.0,-3.6564885496183206,0.04580152671755725,0.0009012222290039062
-0.015267175572519083,-3.6030534351145036,-0.09923664122137404,0.0009002685546875
0.03816793893129771,-3.6717557251908395,-0.022900763358778626,0.0009026527404785156
0.0916030534351145,-3.6564885496183206,0.0,0.0009024143218994141
0.10687022900763359,-3.427480916030534,0.10687022900763359,0.0008997917175292969
-0.022900763358778626,-3.427480916030534,0.007633587786259542,0.0009021759033203125
-0.15267175572519084,-3.549618320610687,-0.06870229007633588,0.0009028911590576172
-0.17557251908396945,-3.3969465648854964,-0.04580152671755725,0.0009033679962158203
-0.12213740458015267,-3.2519083969465647,0.09923664122137404,0.0009019374847412109
-0.13740458015267176,-3.282442748091603,0.15267175572519084,0.0009021759033203125
-0.061068702290076333,-3.450381679389313,-0.0916030534351145,0.0009014606475830078
0.03816793893129771,-3.595419847328244,-0.09923664122137404,0.0009021759033203125
0.10687022900763359,-3.5267175572519083,-0.2748091603053435,0.0009024143218994141
0.1297709923664122,-3.519083969465649,-0.32061068702290074,0.0010237693786621094
0.12213740458015267,-3.3053435114503817,-0.19083969465648856,0.0009114742279052734
0.16793893129770993,-3.3282442748091605,0.022900763358778626,0.0009062290191650391
0.0916030534351145,-3.381679389312977,0.13740458015267176,0.0009047985076904297
0.030534351145038167,-3.4427480916030535,0.04580152671755725,0.0009014606475830078
-0.030534351145038167,-3.480916030534351,-0.04580152671755725,0.0009016990661621094
0.15267175572519084,-3.5572519083969465,-0.08396946564885496,0.0009019374847412109
0.0,-3.6259541984732824,0.007633587786259542,0.001371622085571289
0.0,-3.66412213740458,-0.06870229007633588,0.0009174346923828125
-0.015267175572519083,-3.4580152671755724,0.0,0.0009021759033203125
0.007633587786259542,-3.3053435114503817,-0.16030534351145037,0.0009021759033203125
0.0,-3.2595419847328246,-0.0916030534351145,0.0009059906005859375
-0.08396946564885496,-3.4122137404580153,-0.015267175572519083,0.0008976459503173828
0.007633587786259542,-3.519083969465649,0.04580152671755725,0.0009031295776367188
0.21374045801526717,-3.595419847328244,0.0,0.0009169578552246094
0.2748091603053435,-3.595419847328244,0.030534351145038167,0.0009050369262695312
0.061068702290076333,-3.5419847328244276,-0.007633587786259542,0.0010538101196289062
-0.007633587786259542,-3.50381679389313,-0.10687022900763359,0.0009059906005859375
0.0916030534351145,-3.3740458015267176,-0.0916030534351145,0.0009067058563232422
0.2366412213740458,-3.3206106870229006,0.022900763358778626,0.0009055137634277344
0.22900763358778625,-3.183206106870229,0.17557251908396945,0.0009031295776367188
0.015267175572519083,-3.3206106870229006,0.11450381679389313,0.0009009838104248047
-0.007633587786259542,-3.5343511450381677,0.13740458015267176,0.0009014606475830078
-0.03816793893129771,-3.5877862595419847,0.16030534351145037,0.0009028911590576172
-0.03816793893129771,-3.4885496183206106,0.0,0.0009031295776367188
-0.015267175572519083,-3.435114503816794,-0.015267175572519083,0.0009002685546875
-0.030534351145038167,-3.4198473282442747,0.022900763358778626,0.0009036064147949219
-0.030534351145038167,-3.3969465648854964,-0.05343511450381679,0.0009026527404785156
0.04580152671755725,-3.480916030534351,0.015267175572519083,0.0009024143218994141
0.03816793893129771,-3.595419847328244,0.061068702290076333,0.0009021759033203125
-0.07633587786259542,-3.6793893129770994,0.26717557251908397,0.0009007453918457031
-0.04580152671755725,-3.7709923664122136,0.25190839694656486,0.0009026527404785156
0.03816793893129771,-3.5343511450381677,0.16030534351145037,0.0009019374847412109
0.0,-3.3740458015267176,-0.015267175572519083,0.0009021759033203125
0.0,-3.381679389312977,-0.022900763358778626,0.0009009838104248047
0.06870229007633588,-3.4427480916030535,-0.11450381679389313,0.0009007453918457031
0.022900763358778626,-3.4427480916030535,-0.0916030534351145,0.0009024143218994141
0.061068702290076333,-3.366412213740458,-0.07633587786259542,0.0009024143218994141
0.07633587786259542,-3.480916030534351,0.0,0.0009028911590576172
0.04580152671755725,-3.572519083969466,-0.04580152671755725,0.0008993148803710938
-0.030534351145038167,-3.595419847328244,-0.05343511450381679,0.0009019374847412109
-0.022900763358778626,-3.3740458015267176,-0.022900763358778626,0.0009033679962158203
0.10687022900763359,-3.33587786259542,0.10687022900763359,0.0009036064147949219
0.11450381679389313,-3.519083969465649,0.007633587786259542,0.0009012222290039062
0.06870229007633588,-3.618320610687023,-0.16793893129770993,0.0009014606475830078
0.0916030534351145,-3.6412213740458017,-0.20610687022900764,0.0009026527404785156
0.07633587786259542,-3.5343511450381677,-0.17557251908396945,0.0009021759033203125
0.022900763358778626,-3.5572519083969465,0.007633587786259542,0.0009028911590576172
-0.04580152671755725,-3.5419847328244276,0.15267175572519084,0.0009028911590576172
0.030534351145038167,-3.6106870229007635,0.12213740458015267,0.0009026527404785156
0.04580152671755725,-3.6412213740458017,0.030534351145038167,0.0009021759033203125
0.09923664122137404,-3.6030534351145036,0.061068702290076333,0.0009026527404785156
0.2366412213740458,-3.435114503816794,0.0,0.0009014606475830078
0.19083969465648856,-3.4885496183206106,0.0,0.0009002685546875
0.007633587786259542,-3.4885496183206106,0.0,0.0008995532989501953
-0.1297709923664122,-3.5343511450381677,-0.007633587786259542,0.0009014606475830078
0.06870229007633588,-3.549618320610687,-0.07633587786259542,0.0009021759033203125
0.13740458015267176,-3.519083969465649,0.030534351145038167,0.0009021759033203125
